field.header.stamp,field.orientation.x,field.orientation.y,field.orientation.z,field.orientation.w,field.angular_velocity.x,field.angular_velocity.y,field.angular_velocity.z,field.linear_acceleration.x,field.linear_acceleration.y,field.linear_acceleration.z
1777262855.379919,0.0,0.0,0.0,1.0,0.0044287729769356,-0.04001167310197,0.0032070425005395,-0.1686939932999999,0.0251246373,10.1013006059
1777262855.4813902,0.0007606181047620424,-0.005110179706398281,-0.014917922937003527,0.9998753737835094,0.0164933614313464,-0.1004873316835735,-0.2941316121923443,-0.6807580296999999,0.0873380249,10.1491570579
1777262855.5823808,0.006094095497902421,-0.00797102731356112,-0.07076450491279314,0.9974425845972671,0.1149953810907764,-0.0479529211985442,-1.1081095420912,0.2189432679,1.1114660977,9.1896351953
1777262855.6833751,0.014952724733724106,-0.016375948143267767,-0.13810653431485284,0.9901690913803495,0.2066251668204786,-0.1313360262125733,-1.3455834034406782,-0.1184447186999999,0.0873380249,10.9615203306
1777262855.7843218,-0.004512424524442997,-0.008723483186026941,-0.18621025587460552,0.9824608284675417,-0.3940080786377198,0.0939205303729448,-0.9601274381377306,-0.9140582332,0.0251246373,9.2973122123
1777262855.885208,-0.0424416293210994,-0.0038191505329403467,-0.27818656460933533,0.9595813448898604,-0.7318165553612224,-0.1201877356154595,-1.8687894799572784,-0.0382851616,-0.5312066172,9.8333044747
1777262855.9861355,-0.017683501864254103,-0.01142495019420445,-0.33122577691231425,0.9433166218103606,0.5314527572322734,-0.023060162741975,-1.1079568257816503,0.227318147,-0.47856452,9.475577496
1777262856.0870433,-0.04969080591097754,0.0008522300941348378,-0.3580364394216491,0.9323840440280238,-0.6704245989223219,-0.0071776665488266,-0.5624541680708226,-1.0121639598,-0.909272588,9.5904329808
1777262856.187994,-0.02595154724841365,-0.006450329590952712,-0.33862584304423915,0.9405410405007109,0.4851797154387736,0.042455134054762,0.4079052628067247,-0.3014956476,-0.2584248408,9.0664048314
1777262856.2889626,-0.030292952421085102,-0.005512955959927448,-0.40882960380491473,0.9120911683614277,-0.0626136869152965,-0.0507018147704352,-1.4992160108474792,-0.2596212521,-0.5455635528,9.4815595525
1777262856.3898978,-0.040043238008871586,-0.006937333236816303,-0.4284784229425198,0.902637609215358,-0.1551597705022959,-0.1191187214486129,-0.4256203547144672,-0.2907279459,-0.2656033086,9.9074819753
1777262856.49078,-0.038939409241652075,-0.014667170381414412,-0.4139970757957659,0.9093266837355367,0.0759000058461034,-0.1198823029963605,0.318260789101166,-0.7489534738,-0.4175475436999999,10.3322079868
1777262856.5916655,-0.02302209102463381,-0.02461497293310802,-0.3819132551098108,0.9235834299097101,0.3472768879155717,-0.0410806872688165,0.6867652440441188,-0.0191425808,0.5407779076,9.6753781831
1777262856.69266,-0.04676495446543079,-0.014448739036988963,-0.4175019801537011,0.9073568038769674,-0.4876231763915657,-0.0219911485751285,-0.759000058461034,-0.9702895643,-1.9848463467,9.5210411254
1777262856.793807,-0.057763251301213896,-0.016897068064397603,-0.4263013328491328,0.902576905034132,-0.1705841177667957,-0.1435533309765336,-0.1858557487217461,-0.897308475,-0.5132604477,9.6490571345
1777262856.8950543,-0.06744080351232254,-0.020554524164345406,-0.41615049155417716,0.9065583367534636,-0.1536326074068008,-0.1353066502608604,0.2287690317051567,-0.3170489944999999,0.5647061336,9.5748796339
1777262856.9963837,-0.07785656852748399,-0.022150433644591034,-0.38324649867524946,0.920092296609228,-0.2116648050356123,-0.0697913534641232,0.7185302364304156,0.1292124204,-0.4845465765,10.1539427031
1777262857.0975845,-0.08075958902039038,-0.01936733122117428,-0.3843890905392855,0.9194279864877989,-0.0729983959646628,0.0271835030998116,-0.0241291769088216,-0.2620140747,-0.6843472636,11.2354985183
1777262857.1987824,-0.08948378256635199,-0.018641314934119677,-0.34382622648403893,0.9345740634197437,-0.2087631951541717,0.0131336026212573,0.8681922197889292,-0.933200814,-0.1770688724,9.5042913672
1777262857.3000593,-0.08197876430076848,-0.03863968685892521,-0.18187338706594602,0.9791366237049476,0.0784961831084449,-0.0904080552533062,3.337767661513956,-1.2406785181,-0.8338986760999999,10.5152589157
1777262857.4013455,-0.08206440703370849,-0.04737939028210467,-0.12032365376464538,0.9882018239304294,-0.0445931623884551,-0.0784961831084449,1.2423471781852138,-0.3996013741999999,-0.2919243572,9.607182739
1777262857.5026374,-0.05186592260216164,-0.05242755739175517,-0.02380258756426798,0.9969928355428669,0.5002986300841745,0.063377268463044,1.889253465436912,-0.3170489944999999,0.6460621019999999,9.6083791503
1777262857.604594,-0.04076709198284442,-0.046819248268305295,0.03582592631525124,0.9974279448694563,0.1623374370511225,0.1629483022893205,1.1568260448374916,-0.1184447186999999,-0.2596212521,10.9375921046
1777262857.7068214,-0.04208538851525568,-0.051606202716060846,0.095175479834318,0.9932307123488762,-0.0865901475145686,-0.0395535241733214,1.172403108411541,0.5228317381,0.9415756931,10.0295159279
1777262857.808235,-0.04037365410722939,-0.05488142675673842,0.18881682317630805,0.9796459586691417,-0.0635299847725936,0.0219911485751285,1.872912820315115,-0.2261217357,-0.5527420206,9.8656075798
1777262857.9096088,-0.054225962557690674,-0.05751906406420521,0.22076693274415626,0.9721178239599391,-0.3086396615995472,0.0435241482216085,0.6606507551111536,0.4558327053,1.2598210989,10.3477613337
1777262858.0132103,-0.0550204466445963,-0.06699601476278047,0.345037494438658,0.934576594982149,-0.1785253658633699,0.0061086523819801,2.52394244792465,-0.7310073043,-0.3206382284,10.2951192365
1777262858.1147275,-0.03914914210275683,-0.059572066471448804,0.4098388181900577,0.9093682734038594,0.2909245696918048,0.1087340123992467,1.354899098323198,0.8243273857,-0.107677017,10.3393864546
1777262858.2169578,-0.03714713400223574,-0.0632025791300826,0.3606416920958233,0.9298188502869723,0.0516181126277323,-0.142178884190588,-1.0389290538652745,-1.0145567824,0.2093719774999999,10.3286187529
1777262858.329137,-0.01812703701131993,-0.05335180418744158,0.32313366687673967,0.944674350689129,0.4130976173314079,0.0148134820263018,-0.739910519767346,-0.4857429877999999,-1.1521440819,10.695917022
1777262858.4306626,-0.033813813028635356,-0.06544570504629398,0.35684471134651113,0.9312547115174684,-0.4075998301876257,-0.0858265659668211,0.7389942219100492,-0.0646062102,0.5347958510999999,9.2458665264
1777262858.5331087,-0.04588546002008213,-0.07305222357096114,0.31168696718351113,0.9462606045260621,-0.2258674218237161,-0.1166752604958209,-0.912938098486934,0.4821537539,-1.5541382787000002,10.6624175056
1777262858.6346617,-0.03727054768482116,-0.07496949911931526,0.278785534723974,0.956696977159299,0.1905899543177807,-0.1290452815693307,-0.6853907972581733,0.4019941968,0.4761716974,10.0749795573
1777262858.7362585,-0.033179974078816586,-0.06573919494780708,0.27954302644263496,0.9573051467191825,0.1298088631170782,0.1521054443113058,-0.0047342055960346,-0.3684946804,0.3768695595,10.2699945992
1777262858.837443,-0.0481272407959855,-0.07223732587702733,0.23767419962448902,0.9674587909964745,-0.2733621940936118,-0.0952949771588903,-0.8332201849020929,-0.574277424,-0.6699903279999999,8.5471623272
1777262858.9391122,-0.06050864503890558,-0.08021876024017557,0.2351175000350232,0.9667592335004439,-0.2745839245700079,-0.0966694239448359,-0.0219911485751285,-0.3768695595,-0.0047856452,10.6683995621
1777262859.0403347,-0.06267906619220827,-0.07970487999804182,0.2523127260477975,0.962318427050059,-0.060933807510252,0.0485637864367422,0.3526219587498043,-0.4462614149,-0.1746760498,9.8727860476
1777262859.1418478,-0.0661709884743901,-0.08719671076684228,0.1959795843178598,0.9744794181748349,-0.0279470846475592,-0.220980499918132,-1.1217012936411055,0.7740781111,0.2620140747,10.0941221381
1777262859.242912,-0.037825679969371265,-0.07378193838589496,0.23743532368626052,0.967858414526048,0.5569563809270405,0.1912008195559788,0.7822129375125587,-0.3373879865999999,1.4584253747,10.5655081903
1777262859.3459165,0.010599754306542848,-0.05878499959948668,0.27531805375271623,0.9594956687283929,0.9437867930159336,0.0607810912007025,0.6950119247597919,-1.2622139215,-0.9523433948,10.6935241994
1777262859.447374,0.01797446663773831,-0.053978632544304884,0.28300404550057046,0.9574298595761711,0.1577559477646374,0.0507018147704352,0.1478293876439197,-0.2907279459,-1.0995019847,9.4384887457
1777262859.548423,0.01316871661675486,-0.059264874353027894,0.3644034523204428,0.9292601269329972,-0.2251038402759686,-0.061850105367549,1.721723673861106,-0.4450650036,-0.3996013741999999,9.774680321
1777262859.650118,0.02718837744466074,-0.06780825512356735,0.42708750834886766,0.9012541777331073,0.0968221402543854,-0.2550362369476714,1.348790445941218,-0.9008977089,0.1375872994999999,9.8500542329
1777262859.7511315,0.058076735353162184,-0.05319190295008343,0.5031193964498467,0.8606210473763756,0.554360203664699,-0.0455094602457521,1.670716426471572,-0.1938186305999999,0.5994020613,9.8907322171
1777262859.852528,0.05604105432643539,-0.04937123325873831,0.5668004640684892,0.8204627447289964,-0.1046106720414101,0.0543670061996233,1.498605145609281,-0.1686939932999999,0.3732803256,11.3120688415
1777262859.9535668,0.07450958352896231,-0.03859951483169201,0.5380081716387926,0.8387524108263308,0.4757113042467045,-0.0038179077387375,-0.7119634351197869,0.0382851616,-0.0263210486,10.7102739576
1777262860.0582857,0.08111988501026576,-0.03419854830913706,0.5659174485753257,0.8197484156419349,0.1053742535891576,-0.0285579498857572,0.6382014576073765,0.2344966148,0.5766702466,10.0187482262
1777262860.159401,0.08797938366804267,-0.028465741119502758,0.6144310727360038,0.7835328879430605,0.0872010127527666,-0.0484110701271927,1.1934779591293725,-0.8913264185,-0.6472585133,9.9828558872
1777262860.2608812,0.08674375006787613,-0.032914652607124104,0.6015796669269273,0.7934066119008597,-0.0479529211985442,-0.0386372263160244,-0.3190243706489135,-0.5036891573,-0.0526420972,9.5389872949
1777262860.3635414,0.10734551124562572,-0.022504691957928306,0.6103319451454309,0.7845160271086173,0.4286746809054573,-0.0962112750161874,0.2011273796766965,-0.0251246373,0.2739781877,10.1024970172
1777262860.4649928,0.09561559618936308,-0.03393394811154212,0.5677935163494858,0.8168945266816285,-0.2351831167062359,0.0232128790515245,-1.0386236212461757,-0.6508477471999999,-0.7238288365000001,9.8871429832
1777262860.567358,0.1085297711928064,-0.023347594420167435,0.5711662811864927,0.8132928487545067,0.3211623989826065,0.0204639854796335,0.0697913534641232,0.2201396792,0.0969093152999999,9.8859465719
1777262860.6702397,0.11282457648295158,-0.014411434603046107,0.6014598915121648,0.7907647718483036,0.1111774733520388,0.0339030207199898,0.7322747042898708,-0.8183453291999999,-0.0885344362,10.1790673404
1777262860.771766,0.10188332899792948,-0.026095047589596534,0.5848163926969452,0.804318731969192,-0.279165413856493,-0.0262672052425146,-0.4043927876870862,0.6472585133,0.981057266,9.8847501606
1777262860.873149,0.1112063331161508,-0.028177415868638027,0.5553725590337408,0.8236507180729822,0.1893682238413847,-0.0879645943005142,-0.7211264136927572,-0.1423729447,0.299102825,9.1369930981
1777262860.9761484,0.11996285793362581,-0.029487957002037837,0.5243169064019292,0.8425147801489024,0.1947132946756173,-0.0546724388187223,-0.7319692716707719,0.4139583098,0.8877371846000001,10.9124674673
1777262861.077307,0.13012125926197127,-0.019540006032440285,0.585950446268089,0.7995928467479925,0.1455386430006771,-0.0829249560853805,1.4764612807246031,-0.1052841944,-0.1280160091,9.5066841898
1777262861.187214,0.13430129299051424,-0.021571034122409898,0.5161359489701289,0.845636763255164,0.1828014225307561,0.079717913584841,-1.5447254710932312,-0.7668996433,0.2787638329,9.4600241491
1777262861.2908854,0.14524312088654667,-0.006516438965924312,0.6019267196652904,0.7852045567948024,0.1583668130028354,-0.0977384381116824,2.020284059030386,-0.0586241537,0.2081755662,9.403792818
1777262861.3957915,0.16106949798186265,0.017213692627055438,0.6485135469107528,0.7437677628663715,0.4161519435223979,0.0172569429790939,1.1650727255531648,0.5718846014,0.2297109696,9.3750789468
1777262861.4972284,0.1506284966356477,0.017716776822989763,0.6908561691698714,0.7069051742208563,-0.2539672227808249,0.0022907446432425,1.1446087400735312,-1.6893327556000002,0.0263210486,9.7974121357
1777262861.600618,0.1429139166322148,0.002069151839166561,0.6724679286814608,0.7261943375835235,-0.2712241657599188,-0.060322942272054,-0.5018257931796696,0.1136590735,-0.454636294,9.9314102013
1777262861.7047465,0.13952358707346885,-0.003371292096780165,0.651227364324361,0.7459388198739201,-0.0668897435826826,0.0239764605992721,-0.5535966221169514,0.3397808092,1.148554848,10.3657075032
1777262861.8087926,0.15080532824517678,0.018143964014657427,0.6933711972659259,0.7043897588300925,0.3384193419617005,0.0311541271480987,1.1210904284029075,0.7345965382,0.4833501651999999,10.695917022
1777262861.9102943,0.1506593062084111,-0.007016804768818802,0.6364211619483175,0.7564526703819544,-0.1832595714594046,-0.1889100749127362,-1.5428928753786373,0.6352944003,-0.0945164927,10.420742422999998
1777262862.0118985,0.1497227559891346,0.009645123870951011,0.7256088929748639,0.671551786804506,-0.0394008078637719,-0.0195476876223364,2.455220108627373,-0.1387837108,-0.0837487909999999,10.6995062559
1777262862.116845,0.15951590128001028,0.0392433113207329,0.7913703868012016,0.5888527410563075,0.3506366467256608,-0.0187841060745889,2.0002782224794013,-0.6819544409999999,0.0047856452,10.636096457
1777262862.218439,0.15938508081351843,0.052932438397042716,0.8345658190999147,0.5246850927646982,0.0610865238198015,-0.0426078503643115,1.5323554500197214,-1.4129617452999998,-0.9032905315,8.9288175319
1777262862.31954,0.14283341787654605,0.04828106972245453,0.8664891281007097,0.4758824896205276,-0.379805461849616,0.0901026226342072,1.21882886651459,-0.7944171031999999,-0.0502492746,10.600204118
1777262862.4209566,0.1359544723894005,0.040909087504840215,0.8830227309468551,0.4473406807210796,-0.2641992155206416,-0.0193949713127869,0.6823364710671831,-0.7094719009,0.5515456093,10.0223374601
1777262862.5219555,0.14098831130192988,0.06791509243032409,0.8970187133014663,0.4133609370554898,0.4581489286485115,0.0678060414399797,0.6954700736884404,-0.5335994398,-0.5694917788,10.4171531891
1777262862.623377,0.13180558443140158,0.06195368905387937,0.910668040974541,0.38661705533111634,-0.2464841236128992,0.0465784744125986,0.6281221811771094,-0.801595571,-0.9774680321,10.6384892796
1777262862.724475,0.1175943626081028,0.04467003722737479,0.9298346034395314,0.345808854576265,-0.5187773035396646,0.0439822971502571,0.9532552042080028,-0.8374879099999999,0.5443671415,11.2797657364
1777262862.8261874,0.11654595562931766,0.0702060095195728,0.949958491598432,0.28118858563927984,0.3494149162492648,0.0584903465574599,1.3150401415307775,-1.7252250946,-0.1016949604999999,10.4315101247
1777262862.9271731,0.11476316406890169,0.09782149000585569,0.9690550918713555,0.19542927412270455,0.3677408733952052,-0.0226020138133265,1.7214182412420072,-0.0203389920999999,0.4247260115,10.4626168185
1777262863.028647,0.11507175168240064,0.07205614828910198,0.9589835581064179,0.2488311450362228,-0.4002694473292496,-0.0065668013106286,-1.0445795573186063,0.5994020613,1.2598210989,9.798608547
1777262863.1304655,0.13004254501973253,0.07154701147620585,0.9390688517244778,0.31003169733832914,0.2063197342013796,-0.1504255649062612,-1.3132075458161834,1.7132609816000002,0.9786644434,10.9387885159
1777262863.23326,0.12437095173587216,0.06697157895433462,0.9428957554407298,0.3016525623105699,-0.1414153026428405,0.0569631834619649,0.200363798128949,0.6795616184,-0.1507478238,9.7842516114
1777262863.3346694,0.11793182459295179,0.06130461826586467,0.9641732948362252,0.22957283387219715,-0.2947424774305424,-0.0516181126277323,1.5210544431130584,0.179461695,-0.4402793584,9.9972128228
1777262863.4359,0.12706231975326326,0.0903577879619876,0.9500586338751869,0.2703317022710238,0.6982189672603316,0.0673478925113311,-0.9213374955121566,-0.2691925425,-0.23928226,10.2101740342
1777262863.5397034,0.11828278859023425,0.051740567294006785,0.9272294479142772,0.3515361240896829,-0.619264635223238,0.0942259629920438,-1.571298108954845,0.2787638329,-0.2021935097,9.4803631412
1777262863.640765,0.12621578224229807,0.04233183075933716,0.9019546948822711,0.410798394346128,0.0132863189308068,-0.100029182754925,-1.2968669006943867,0.2333002035,0.6520441585,9.2901337445
1777262863.7422192,0.13220282040053166,0.06818538507406972,0.9091995211969455,0.38888224206781535,0.4775438999612985,0.0555887366760194,0.4170682413796949,0.2548356069,-1.9465611851,9.2638126959
1777262863.843303,0.13195636797546498,0.06009956083628665,0.9073505170951848,0.3945764803749835,-0.1386664090709495,-0.0470366233412471,-0.1111774733520388,0.7453642399,-0.7190431913,10.0343015731
1777262863.9447184,0.14032974561863923,0.05431526052895893,0.8867344052206028,0.43710354558884945,0.0641408500107916,-0.0940732466824943,-0.9593638565899832,-0.7501498851,-1.0731809361,10.5619189564
1777262864.0487509,0.12259866864879276,0.024444628197715354,0.9065410398604626,0.4031815591598034,-0.7570147464368905,-0.0116064395257622,0.836274511093083,-0.6317051664,0.0,10.3788680275
1777262864.1504147,0.11682009290032158,0.009510338866024287,0.9079679079996911,0.4023144260302858,-0.322842278387651,-0.0192422550032374,0.0592539281052074,-0.6592226263,0.0574277424,9.6801638283
1777262864.2513795,0.1163079965592458,0.005741897387763789,0.92356050318872,0.36534295873953987,-0.1582140966932859,-0.0623082542961975,0.8136724972797564,-0.9140582332,0.2667997199,9.5042913672
1777262864.3528757,0.12526228988623872,0.013895825884437343,0.925997913762477,0.3558709435497445,0.1986839187239044,-0.1156062463289744,0.1646281816943651,-0.6293123438,-1.0923235169,9.6765745944
1777262864.454256,0.12858973863718345,0.016028890858124284,0.9102515631159647,0.3932554457601599,0.1571450825264394,0.0061086523819801,-0.8242099226386722,0.7441678286,1.2586246876,9.7854480227
1777262864.5553415,0.12865940510530788,0.016753441570101182,0.9166138088425337,0.3781338455000933,-0.023060162741975,-0.0172569429790939,0.3287982144600818,-0.5802594805,-0.4331008906,10.5140625044
1777262864.6572542,0.13018506920767509,0.005047453243715,0.9077129331932635,0.39885285743595633,-0.1496619833585137,-0.0919352183488013,-0.4347833332874374,0.0921236701,0.8410771438999999,10.265208954
1777262864.75842,0.13851759659453866,-0.007290835775151855,0.8951424481679826,0.4236504651658051,-0.0829249560853805,-0.2226603793231766,-0.5566509483079415,0.23928226,0.0454636294,9.7292166916
1777262864.8597667,0.1359816349793123,-0.010417335213286465,0.8914876299305999,0.4320304153137007,-0.0560468856046679,0.0276416520284601,-0.1733330113386868,-0.7262216591,-1.5720844482,9.7938229018
1777262864.9607394,0.14798404451478095,-0.007188066445592001,0.887566341469733,0.43620527708849915,0.1852448834835481,-0.1795943800302165,-0.1443169125242811,-0.5300102059,-0.1160518961,9.6574320136
1777262865.0651934,0.15734987208090082,0.0054965014762987235,0.8729397575144642,0.46172176251313285,0.3874412773270912,-0.0067195176201781,-0.6230825429619757,0.3984049629,-0.227318147,11.3551396483
1777262865.1661708,0.15377554088723797,0.008844084548781661,0.9147984481574812,0.3733880882433124,-0.2463314073033496,-0.0525344104850293,1.991115243906431,0.2021935097,0.2428714938999999,10.2149596794
1777262865.270847,0.15090490857118344,0.027204482922560114,0.9580152022986638,0.2422694715449907,-0.0574213323906134,-0.0120645884544108,2.6789495021173964,-0.0107677016999999,0.3014956476,10.4315101247
1777262865.3740523,0.14752176772328845,0.053669229395704385,0.9771256836504907,0.14346546697525825,0.2223549467040776,0.0308486945289997,1.945911216279778,-0.1938186305999999,1.1306086785,9.6454679006
1777262865.4751298,0.14022583114365564,0.053476413111402284,0.9859979624464954,0.07269805755430388,-0.2235766771804736,0.0426078503643115,1.4624113802460488,-1.0815558152,-0.1854437515,9.2135634213
1777262865.577251,0.13904385038124167,0.06420893795504229,0.988200555301486,-0.0019189736004274682,0.0077885317870246,-0.0641408500107916,1.474017819771811,-0.6628118601999999,-0.3218346397,10.4674024637
1777262865.6787858,0.14241762046960937,0.07588707649059408,0.9861896750588652,-0.03725986860919914,0.1363756644277069,-0.1180497072817664,0.6776022654711484,0.3122633493,0.0610169763,8.5986080131
1777262865.782549,0.1429612410710262,0.10557986817874764,0.9782314941449066,-0.10713598298337357,0.3851505326838486,-0.1589776782410335,1.302822836766817,-0.3577269787,-0.3756731482,9.0352981376
1777262865.8841252,0.14391075707077164,0.08713196252420193,0.9763564033158024,-0.1357419935400563,-0.4683809213883282,-0.0242818932183711,0.6433938121320597,-0.131605243,0.0047856452,11.8097759423
1777262865.9853249,0.1494847091170756,0.10180883566848986,0.968535746572047,-0.17096137087698254,0.1681406568140037,-0.2050980037249836,0.6800457264239406,-0.7310073043,-1.016949605,11.9078816689
1777262866.0870764,0.14674261797232163,0.11356683160424605,0.9659960965556701,-0.18005754710428168,0.2156354290838994,-0.000305432619099,0.1518000116922068,-0.586241537,-0.3720839143,10.7258273045
1777262866.1914203,0.15347245340433474,0.10672735257296896,0.9653345835296828,-0.18216646261151828,-0.1626428696702215,-0.1094975939469942,0.0610865238198015,-1.0109675485,0.0909272588,9.9026963301
1777262866.2930343,0.14904924622745663,0.12405260611522738,0.9563888460649114,-0.21843911792001547,0.2364048471826319,-0.0429132829834105,0.7034113217850148,0.0155533468999999,-0.4115654871999999,12.2715907041
1777262866.3978393,0.14713902029660422,0.12159712327855873,0.9467122290019717,-0.2594228281679407,-0.1867720465790432,-0.0242818932183711,0.8497135463334394,0.3397808092,0.4067798419999999,9.6023970938
1777262866.4994652,0.15573813994110272,0.13257158693342466,0.9557109579776011,-0.21162932430827014,0.3672827244665567,-0.1270599695451872,-1.0534371032724774,0.6616154488999999,0.5168496816,8.3820575678
1777262866.6005666,0.15341026690674012,0.13918733829179153,0.9566183821234485,-0.20487421958451713,0.1696678199094987,0.0343611696486383,-0.1647808980039146,-0.3074777040999999,1.1234302107,10.4937235123
1777262866.702069,0.15687392919835755,0.12701395406948185,0.9593094499861284,-0.1974421560275722,-0.2327396557534438,-0.0062613686915296,-0.1156062463289744,-0.610169763,-0.4103690759,9.9732845968
1777262866.806728,0.14014605853328915,0.14351101382804615,0.9360335537707877,-0.28914504561354626,0.0566577508428659,0.0589484954861084,1.8422168420956648,-0.1902293967,-0.5814558918,9.6945207639
1777262866.907868,0.13896206047826623,0.14654540838166175,0.9372027045501905,-0.2843678596707,0.0852157007286231,0.0161879288122474,-0.1127046364475338,-0.777667345,-0.6113661743,9.7591269741
1777262867.0108063,0.14503568263965602,0.1378707256999797,0.9435801427599974,-0.26384243014578435,-0.1247692249019446,-0.0273362194093611,-0.4066835323303287,-0.5874379483000001,-0.3804587934,11.2785693251
1777262867.11261,0.14390767435849544,0.1395162344669173,0.9337632288666422,-0.29649963574588767,-0.0862847148954696,-0.0526871267945788,0.6942483432120445,0.0933200814,-0.4247260115,10.5391871417
1777262867.2144332,0.14110757200331317,0.14847520157520788,0.9291809639767158,-0.3076792222816367,0.1501201322871622,-0.022143864884678,0.2118175213451618,-0.8195417405,0.131605243,9.8285188295
1777262867.3155873,0.14066377778026182,0.14929568732281168,0.9250465848209852,-0.3197081720544942,-0.0287106661953067,-0.0222965811942275,0.2599231588532555,-0.5503491979999999,-1.1497512593,10.394421374399998
1777262867.417197,0.13551007527090267,0.15460168455916493,0.9024743873096427,-0.3785172636507191,-0.100640047993123,-0.062460970605747,1.2796099577152926,-0.6975077879,-0.8626125473,10.4243316569
1777262867.5185523,0.13713832351134622,0.1577536424183221,0.9095278408750073,-0.3592575332564327,0.1301142957361772,-0.0125227373830593,-0.4393648225739225,-0.0849452023,0.1363908882,10.6995062559
1777262867.6200745,0.13941767424087964,0.15862192458259522,0.9132623666293845,-0.34835850334027,0.0470366233412471,-0.0248927584565691,-0.2435825137314586,-0.7908278692999999,0.2285145583,10.3549398015
1777262867.7212975,0.13983652434989227,0.168944633910726,0.9191476465939352,-0.327217146389585,0.2904664207631562,-0.0261144889329651,-0.5013676442510211,0.4761716974,1.0313065406,10.0127661697
1777262867.8247137,0.1430483455746726,0.17633339747693533,0.9210187530268689,-0.3164935391685298,0.1711949830049938,-0.0780380341797964,-0.2565634000431664,-0.2009970984,-0.5252245607,10.1479606466
1777262867.9265544,0.1357593904802811,0.18161847371935883,0.9118992368816723,-0.34208756141505164,0.0410806872688165,0.0345138859581878,0.5444336435439812,-0.9643075078,-0.6735795618999999,9.7316095142
1777262868.027708,0.14596099871911003,0.17826891713977783,0.9165209867338384,-0.3269630879949021,-0.0635299847725936,-0.1310305935934743,-0.3255911719595422,-0.9583254513,-0.4725824635,9.3643112451
1777262868.128694,0.15187048313249313,0.16652296332710342,0.9200771996670732,-0.3204113070580683,-0.2432770811123596,-0.0219911485751285,-0.103083508945915,-0.1256231865,0.4474578262,10.0235338714
1777262868.2299557,0.15824070214796182,0.16340815590543192,0.9301342979992462,-0.2882843083706698,0.0426078503643115,-0.0258090563138661,-0.694401059521594,-0.2679961312,-0.3553341561,10.059426210400002
1777262868.33116,0.1556463936090939,0.17622426206839029,0.9247372691082939,-0.2992995034026441,0.2267837196810132,-0.0511599636990837,0.1930334152705728,-0.9200402897,-0.107677017,9.9589276612
1777262868.432318,0.1602104048854743,0.16897017646922752,0.9197496654414713,-0.3159782564523893,-0.2478585703988447,-0.0876591616814152,0.3947716601854674,-0.0155533468999999,0.2584248408,9.5330052384
1777262868.5334537,0.1712779054965057,0.16082921775725834,0.9252182245204603,-0.2979414016539586,-0.1434006146669841,-0.122173047639603,-0.3666718592283587,0.526420972,0.5611168997,9.6382894328
1777262868.634505,0.18475746875600915,0.13516851873410418,0.933089274650965,-0.2773779998728024,-0.5009094953223726,-0.0762054384652024,-0.3445279943436806,-0.3290131074999999,-1.2119646469,9.7758767323
1777262868.7355106,0.19642822771296076,0.13016625290652317,0.9446888111387907,-0.22811345438399447,0.0823140908471825,-0.1174388420435684,-1.0589348904162597,-0.4067798419999999,-0.1495514125,9.8069834261
1777262868.8370907,0.1819499090260387,0.15198432560831945,0.9070397011174586,-0.34795685935407583,-0.0752891406079053,-0.0581849139383609,2.559219915430585,0.0861416135999999,0.2883351233,9.4193461649
1777262868.9381292,0.16050754755753238,0.17321868409443725,0.843746663160829,-0.4820001898989509,-0.1266018206165386,-0.0219911485751285,3.0503555669417897,-0.6963113766000001,0.4689932296,9.8380901199
1777262869.0391157,0.14146213647837955,0.18416117241795057,0.7899992217998342,-0.5674278421722665,-0.0836885376331281,0.0586430628670094,2.08075971761199,-1.2514462198,0.7489534738,11.0249301295
1777262869.141475,0.1363927414346828,0.18166550807646636,0.7656707361095394,-0.6017831728494302,-0.1826487062212065,0.0540615735805243,0.8901833683640578,-0.7597211755,0.4558327053,10.5978112954
1777262869.2437298,0.13441626946234214,0.17886878948576973,0.7331742803263326,-0.6421788670765232,-0.2658790949256862,0.0073303828583761,1.1010845918519223,0.3314059300999999,-0.6867400861999999,9.8727860476
1777262869.3452592,0.124331448482291,0.18864859110406249,0.7219275438445111,-0.6540443573882274,0.2199114857512855,0.0059559360724306,0.281303442190186,-1.0983055734,0.1519442351,10.1060862511
1777262869.4462397,0.12037202844610972,0.19231433428547273,0.7200902299180416,-0.655740674636465,0.102778076326816,0.0077885317870246,0.0280998009571087,-0.4809573425999999,-0.7812565789,10.4757773428
1777262869.5475929,0.12703289571855403,0.18825640373731958,0.6892845908771756,-0.6879745072577433,-0.3729332279198883,-0.0937678140633953,0.9824240193319582,-0.2177468566,-0.0969093152999999,10.2077812116
1777262869.649166,0.07875902336103105,0.2189996113305464,0.5851098967338247,-0.7768414221837164,0.5401575868765951,0.0189368223841384,2.6502388359220896,-0.2548356069,0.1710868159,10.8143617407
1777262869.7505891,0.06713807830521115,0.2268377328482266,0.5452006880582816,-0.8042346244340245,0.0649044315585391,-0.061850105367549,0.9619600338523246,-0.47856452,-0.4342973019,9.8739824589
1777262869.8534496,0.04688228426831398,0.2298368545399521,0.4814841291071921,-0.8444821520522827,0.0265726378616136,0.0511599636990837,1.5062409610867562,-0.1112662509,0.5300102059,10.255637663599998
1777262869.954593,0.06984133771587486,0.22638211451796064,0.49336373349267987,-0.8369382009722091,-0.3857613979220466,-0.1598939760983305,-0.2078468972968747,-1.2191431147,-0.5802594805,9.1848495501
1777262870.0589948,0.06530092396093648,0.2363200305687861,0.5076039690865769,-0.8259702434406275,0.2835941868334286,-0.0948368282302418,-0.4273002341195117,-0.2285145583,-0.4247260115,10.9734844436
1777262870.1599894,0.07036802584275936,0.24143736763040302,0.498407047543719,-0.8296666519810516,-0.0798706298943905,-0.1574505151455384,0.2075414646777757,0.1232303638999999,0.8913264185,9.2231347117
1777262870.261441,0.06697780967859171,0.24734269952427831,0.5340497779574275,-0.8056838068785567,0.3654501287519626,0.0074830991679256,-0.9665415231388096,-0.3577269787,-0.7286144817,10.888539241299998
1777262870.3625906,0.08393302987562933,0.24013002590024882,0.5563758606774769,-0.7910364838693847,-0.2451096768269536,-0.0358883327441334,-0.4873177437724667,-0.095712904,-0.5970092387,9.3463650756
1777262870.4640791,0.06841558478483944,0.2522076412971078,0.5533051377708227,-0.7909260635143519,0.4156937945937494,-0.0152716309549503,-0.0569631834619649,-0.3744767369,-0.0251246373,10.3393864546
1777262870.5651157,0.062164627000804495,0.252666595825355,0.5168899505227442,-0.8155488517265367,-0.1247692249019446,-0.0193949713127869,0.9312640556328744,-0.3864408499,-0.5670989562,9.5533442305
1777262870.668546,0.0606344084575933,0.26563049030164415,0.5461622818733465,-0.7921304646281475,0.3996585820910515,-0.1177442746626674,-0.8654433262170382,0.1734796385,0.7944171031999999,10.8119689181
1777262870.7696228,0.04968798690892606,0.2753894318129323,0.5454830582611588,-0.7900253147543702,0.3284927818409827,-0.0258090563138661,-0.1032362252554646,0.0071784678,-0.8422735552,10.9507526289
1777262870.8725584,0.03126953790952282,0.28300764494166664,0.5029010633584696,-0.8161001221519434,0.141873451571489,-0.0450513113171036,0.9666942394483592,-0.3397808092,-1.0037890807,10.7569339983
1777262870.9799206,0.012546531756049792,0.2745616868155113,0.4241624712203401,-0.8628700149397762,-0.2608394567105525,0.0951422608493408,1.8591683524556597,-1.1174481542,-0.2009970984,10.6349000457
1777262871.0814724,0.020281469956631284,0.27009717886506734,0.4001982382958358,-0.8754870336049755,-0.3471241716060222,-0.0529925594136778,0.6388123228455745,-0.9272187575,-0.7800601676,10.9890377905
1777262871.1872358,0.004348701195105303,0.27348988437953226,0.36027410385401015,-0.8918446849267958,0.0981965870403309,-0.0193949713127869,0.819628433352187,-0.4151547210999999,0.0969093152999999,9.0257268472
1777262871.288714,0.004378154586815647,0.2836152918727628,0.3596496775435951,-0.8889293039500552,0.1052215372796081,-0.1867720465790432,-0.06154467274845,0.4127618984999999,-0.011964113,9.547362174
1777262871.4220831,0.013358779524166711,0.2733569639547918,0.26797782818731164,-0.9237344839655252,-0.6553056842769209,-0.041844268816564,1.707979206001651,-0.0969093152999999,-0.3900300838,9.822536773
1777262871.526193,0.014264421733324761,0.27897621713134046,0.31080850809274285,-0.9084970378844746,0.2948951937400919,-0.0401643894115195,-0.9937250262386216,0.7872386353999999,0.0586241537,11.1541425499
1777262871.6273873,0.016537178284254925,0.28019137943547096,0.2969492454818724,-0.9127105007789652,-0.1256855227592416,-0.0638354173916926,0.3277292002932352,0.263210486,-0.3086741154,9.9373922578
1777262871.7290297,-0.008798772075024747,0.2863683087990158,0.30966906763692725,-0.9066536504500708,0.6589708757061091,0.0858265659668211,-0.4633412831731946,-0.1758724611,1.2011969452,11.3371934788
1777262871.8300672,0.010914920601111947,0.2741061306327781,0.31856376148750365,-0.9073388691799391,-0.4651738788877886,0.1087340123992467,-0.0282525172666582,-0.3852444386,-0.1902293967,8.930013943199999
1777262871.9315107,0.0004084937932167243,0.2753412807449612,0.32367466940195466,-0.9052191561373858,0.2559525348049684,0.0639881337012421,-0.1760819049105779,-0.9726823869,-0.3661018578,10.1802637517
1777262872.0333824,0.0044000264509155285,0.27692890282523414,0.34541361933902676,-0.8966495715285638,0.0697913534641232,-0.0102319927398167,-0.4972443038931844,0.0406779841999999,0.8159525066,9.6299145537
1777262872.1344795,0.007458455845235953,0.26729696707572814,0.28228350338759406,-0.921310331291117,-0.5406157358052436,0.0332921554817918,1.541365712283142,-0.0083748791,-0.8817551281,8.8378902731
1777262872.2363846,-0.04542446488002316,0.2733164320718494,0.22176392164124273,-0.9349093587124767,0.7869471431085933,0.0658207294158361,1.0613783513690516,0.5659025448999999,-0.4522434714,10.2341022602
1777262872.3375616,-0.04096298073879867,0.27084002813760466,0.231716707794748,-0.9334211700492858,-0.0551305877473708,0.0484110701271927,-0.1853975997930976,0.5623133109999999,0.1495514125,10.1611211709
1777262872.4391367,-0.043333351731504065,0.2652578858985707,0.18710167906188577,-0.9448563045715246,-0.2428189321837111,0.0178678082172919,1.0076222104076262,0.5826523031,-0.035892339,9.2949193897
1777262872.5402417,-0.0843478012610378,0.2551552669862411,0.053190015465445675,-0.9617442801526787,0.0908662041819547,0.0364991979823314,2.7546967916539504,-0.9906285564,0.8291130308999999,9.9457671369
1777262872.6442754,-0.11214282181097565,0.2385850111081279,-0.050802774661189515,-0.9632861766253735,0.0129808863117078,0.1177442746626674,2.0854939232080243,-0.6927221427000001,0.7070790783,9.8991070962
1777262872.745745,-0.14614817975097785,0.22808216182653843,-0.14260147056281544,-0.951989525995602,0.2530509249235278,-0.0548251551282718,1.8208365587587343,-0.2129612114,-0.5347958510999999,10.1228360093
1777262872.8471224,-0.14852515992857462,0.23614992620843342,-0.20665527692883132,-0.9377990646921177,-0.3327688385083688,-0.321009682673057,1.394605338806069,-0.5575276658,-0.0658026215,9.6239324972
1777262872.9483778,-0.1608441049666509,0.2282213468563649,-0.28747422407458606,-0.9161892605948067,-0.1954768762233649,-0.0728456796551133,1.7672331341068583,-0.8757730716000001,-0.4941178669,9.7806623775
1777262873.0499268,-0.16370570035191123,0.22721081991972927,-0.32951238460872917,-0.9016636154204979,-0.2017382449148945,-0.0798706298943905,0.960891019685478,0.4474578262,0.3852444386,9.870393225
1777262873.15227,-0.16098871438383436,0.22400479324330097,-0.37532866862400155,-0.8848914492490029,-0.3321579732701708,0.0038179077387375,1.0858129608969722,0.3098705267,-0.4235296002,10.8861464187
1777262873.253859,-0.1940384376426178,0.20969745987469757,-0.3863516186390872,-0.8769883048332336,0.7194465342877125,-0.0051923545246831,0.0693332045354747,-0.5694917788,0.346959277,10.0115697584
1777262873.3554926,-0.20811992773625854,0.20909126167930425,-0.4052510460518595,-0.865296787028754,0.1669189263376077,-0.1478293876439197,0.3880521425652892,0.2560320182,-0.394815729,9.2099741874
1777262873.456709,-0.18003864471940073,0.22294831797149878,-0.3844299470534149,-0.8775498559795845,-0.5496259980686643,0.0094684111920692,-0.3359758810089084,-0.9176474671,-0.6759723845,9.6825566509
1777262873.558094,-0.18699091596485523,0.21761913366895028,-0.38533552205102556,-0.8770363991610974,0.180357961577964,0.0452040276266531,-0.0261144889329651,-1.0360921858,0.1100698396,9.1537428563
1777262873.659099,-0.1926829699424717,0.21523510248283756,-0.3807159860756589,-0.8784090514673614,0.1687515220522017,0.0114537232162127,-0.1459967919293256,-0.2321037922,-0.5886343596,9.4432743909
1777262873.7606847,-0.14546294283749162,0.2329105725088427,-0.3264824453116979,-0.9044348569012332,-0.7539604202459004,0.0986547359689794,-1.0094548061222204,-0.1890329854,-0.4773681086999999,9.7722874984
1777262873.8617728,-0.16975457461128202,0.21971724858701927,-0.34763504368891596,-0.895576680955516,0.4647157299591402,0.0543670061996233,0.3469714552964727,-0.5778666579,-0.2416750825999999,10.3334043981
1777262873.9632146,-0.1695966723009007,0.22766373019641878,-0.3252520148953927,-0.9020073843954941,0.0888808921578112,-0.1088867287087962,-0.5125159348481348,-0.1674975819999999,0.1088734283,10.2472627845
1777262874.0653362,-0.19283927140365725,0.21918386425839875,-0.3706488331228181,-0.8816977325353377,0.2434297974219091,-0.0969748565639349,0.9358455449193596,-0.0825523797,-1.2981062605,10.7964155712
1777262874.167708,-0.17738513021262886,0.23563740701762073,-0.3452247715453652,-0.8909710349416029,-0.2663372438543346,-0.1493565507394147,-0.4906775025825558,0.4223331889,0.3397808092,9.2817588654
1777262874.2696824,-0.18364651527716602,0.23921750587275958,-0.33791142009167574,-0.8915519135093576,0.1601994087174295,-0.0971275728734844,-0.202807259081741,-0.2201396792,-0.0263210486,10.683952909
1777262874.3758786,-0.17491362353661866,0.2431588982748503,-0.3630761380345999,-0.8823007947865237,-0.3799581781591655,-0.0613919564389005,0.6388123228455745,1.4057832775,0.1232303638999999,10.6217395214
1777262874.4779682,-0.1944418852522028,0.2422403106876271,-0.35123900955815285,-0.8832571218519208,0.5088507434189468,-0.0995710338262765,-0.400422163638799,0.1758724611,0.8697910151,9.8991070962
1777262874.580095,-0.20833867905989356,0.2443966002449455,-0.3618968444547474,-0.8751548266278302,0.2031126917008401,-0.1676825078853552,0.1817324083639095,-1.3136596074,-0.8997012976000001,10.7581304096
1777262874.681147,-0.21284766289309437,0.24054702342282264,-0.4005853222320156,-0.8581167761648992,-0.1798998126493155,-0.0583376302479104,0.9346238144429634,-0.4522434714,0.6053841178,10.2687981879
1777262874.782882,-0.21743728845793314,0.24684079418278143,-0.4015488690487514,-0.8547216820000204,0.0368046306014304,-0.160962990265177,0.0166460777408959,-0.5395814963,-1.1653046062,9.2769732202
1777262874.8842776,-0.24872371303584973,0.22057014990240859,-0.4468635625321156,-0.8305409562609151,0.5193881687778625,0.0968221402543854,0.9137016800346814,0.3254238735999999,-1.1090732751,10.5439727869
1777262874.9856982,-0.2539079124488278,0.22867035753523832,-0.4415079449019338,-0.8296453303484904,0.0813977929898855,-0.1837177203880531,-0.1455386430006771,-0.6053841178,-0.0502492746,9.8799645154
1777262875.0897448,-0.27950834644802436,0.21615578872757912,-0.46033574273913835,-0.8143971778083807,0.4838052686528281,-0.0697913534641232,0.3100141083854927,0.1758724611,-1.1796615418,9.8847501606
1777262875.1913002,-0.27381621546477375,0.21110049182866664,-0.501667601467755,-0.792963353589454,-0.4401284041216701,-0.0013744467859455,1.1294898254281305,-0.3302095188,-0.394815729,9.4767739073
1777262875.2922804,-0.3019026214380733,0.194333776985938,-0.5095018157121756,-0.7819827939777163,0.6873761092823167,-0.0256563400043166,0.020922134408282,-0.1639083481,-0.5096712138,11.7439733208
1777262875.3937757,-0.30175782950324015,0.1849148794506128,-0.5432480453305277,-0.761334526299589,-0.2130392518215578,0.0267253541711631,0.9130908147964834,-0.59820565,-0.1938186305999999,9.4695954395
1777262875.495126,-0.30621262681539996,0.1731423288982465,-0.5742923305590364,-0.739218425219214,-0.0676533251304302,0.02153299964648,0.8312348728779494,-0.7800601676,0.4606183505,10.0163554036
1777262875.5961998,-0.31172197261703916,0.18228165374509048,-0.5314065312377303,-0.7662962280042752,0.4103487237595168,-0.0371100632205294,-1.2220359090151296,0.5730810127,-0.6903293201,10.360921858
1777262875.69897,-0.2864331715084646,0.2204126463349026,-0.44849520681685745,-0.8174511319079275,-0.1530217421686028,-0.081550509299435,-1.996613031050213,0.8530412569000001,-0.047856452,9.6921279413
1777262875.800096,-0.2900397801936789,0.2290272223957905,-0.44681218921780586,-0.8147283749037243,0.020616701789183,-0.1912008195559788,-0.0490219353653907,-0.0586241537,-1.4081761001,10.6540426265
1777262875.901827,-0.3034186184367851,0.21275358519713933,-0.4870851929478378,-0.7908356774846743,0.0626136869152965,0.003665191429188,0.9688322677820524,0.622133876,0.0251246373,9.1369930981
1777262876.0028582,-0.30574787795755454,0.20245332805724386,-0.5278739825387142,-0.7660808988884369,-0.240375471230919,-0.0114537232162127,1.1013900244710215,0.0586241537,0.0969093152999999,10.1958170986
1777262876.104425,-0.31811519161195245,0.1754969783558605,-0.5836795904047888,-0.7261691753293795,0.0083993970252227,0.0855211333477221,1.4643966922701923,-1.2969098492,-0.5240281494,10.1874422195
1777262876.205503,-0.33164939548236444,0.15162522683357615,-0.6208680163009038,-0.6939318233071815,0.1855503161026471,0.0503963821513362,0.9886853880234878,-1.0085747259,-0.4893322216999999,10.1359965336
1777262876.306877,-0.34050762974805976,0.1382145820723327,-0.6319306464155903,-0.6823598328643786,0.2301434784911022,0.041233403578366,0.2646573644492901,-1.1030912186,-0.3672982691,12.0263263876
1777262876.407894,-0.3557577043171481,0.12942974398753734,-0.6539865217130525,-0.6549702486433839,0.1582140966932859,-0.201890961224444,0.6426302305843121,-0.7369893608,-1.4368899712999998,10.3561362128
1777262876.5092945,-0.34498471794708363,0.13126946614725948,-0.6808414495370978,-0.632620575252345,-0.5296201615176793,-0.0125227373830593,0.9315694882519734,0.4953142781999999,-0.4223331889,10.0199446375
1777262876.6107545,-0.3608718384959714,0.1150314881867358,-0.6890243332985756,-0.6178873206568781,0.420733432808883,-0.0461203254839501,0.1831068551498551,0.8793623055,-0.3361915753,9.9888379437
1777262876.7137127,-0.36777417642824034,0.10112269199506996,-0.7134356697445313,-0.5878145127949559,0.0267253541711631,-0.0531452757232273,0.7915286323950784,0.0143569356,0.2249253244,10.0307123392
1777262876.8164327,-0.37488265235580587,0.06270181256790078,-0.7785773671291605,-0.49934833839475257,-0.1435533309765336,-0.0346666022677373,2.361299578254428,-0.3278166962,-0.3074777040999999,10.336993632
1777262876.9175313,-0.3862743082328323,0.038581905496743285,-0.8152263198500892,-0.429778597409372,-0.0343611696486383,-0.2171625921793944,1.651016022539686,-0.0370887503,0.299102825,9.0999043478
1777262877.018979,-0.38255308271774546,0.01807931751746425,-0.8560524278853132,-0.34713184511495476,-0.4644102973400412,-0.0601702259625045,2.1394027804789992,-0.0741775006,-0.2835494781,9.8309116521
1777262877.1201477,-0.38221838787652374,0.009447077070126653,-0.8670719756120272,-0.3193838533992577,-0.0908662041819547,-0.0177150919077424,0.6711881804700693,0.7441678286,1.1330015011,10.558329722499998
1777262877.2215462,-0.3855190164066067,-0.05149904565021453,-0.8920999164288868,-0.22995798614871588,0.561690586523075,0.062155537986648,1.7774651268466752,-0.6460621019999999,0.0741775006,10.1192467754
1777262877.322632,-0.3838814289551304,-0.08093146341241415,-0.9019335450944401,-0.18055754475143831,0.2153299964648004,0.0120645884544108,1.000597260168349,-0.8267202082999999,0.0334995164,9.7591269741
1777262877.4246526,-0.3925561535881442,-0.08752225417609236,-0.8973481972640606,-0.18167480334641234,0.2640464992110921,-0.1247692249019446,-0.1765400538392264,1.6283157793,-0.2081755662,11.0823578719
1777262877.525826,-0.37809240134394234,-0.10843797380239681,-0.9136606683261401,-0.10252572866082367,-0.3680463060143042,0.0540615735805243,1.898874592938531,-1.878365741,-0.3912264950999999,10.5391871417
1777262877.6272736,-0.3804953912413501,-0.10120136951301292,-0.912694672740284,-0.1094073781985849,-0.0920879346583508,-0.0497855169131382,-0.1232420618064496,0.1016949604999999,-0.6580262149999999,10.3262259303
1777262877.7283866,-0.3848489708859102,-0.11870097410886514,-0.9103047364745177,-0.09563804214705196,0.3425426823195371,-0.0743728427506083,0.1351539339513109,0.4342973019,0.7944171031999999,10.5236337948
1777262877.8299584,-0.3839350641513182,-0.0957369690973575,-0.909175103329946,-0.12972636874651622,-0.2551889532572209,0.0623082542961975,-0.612850550222159,-0.8327022648,-0.6029912952,9.8668039911
1777262877.931511,-0.38738915327403356,-0.10817808039783243,-0.9070471824724524,-0.12446909502303247,0.2871066619530672,-0.0339030207199898,-0.0174096592886434,0.6891329087999999,-0.8291130308999999,10.5224373835
1777262878.0354965,-0.3854766617929397,-0.08177945980140465,-0.9057264546122157,-0.15613920898719896,-0.3553708523216954,0.040317105721069,-0.5090034597284963,0.1950150419,0.5276173833,10.9531454515
1777262878.1370792,-0.38944453400610574,-0.07964743609994983,-0.9000554626089761,-0.1785760484589516,0.1992947839621024,0.001832595714594,-0.5742133239061344,-0.6077769404,-0.023928226,9.8010013696
1777262878.238406,-0.38280209937134374,-0.07371391065742328,-0.9082526152690783,-0.15200657534909817,-0.45860707757716,-0.0047342055960346,0.7744244057255341,-0.2608176634,-1.2143574695,9.9110712092
1777262878.342342,-0.39030214888192477,-0.0794525254228601,-0.9033812604090755,-0.158914527730449,0.2732094777840623,-0.0911716368010538,-0.2881756761199137,0.1256231865,-0.1184447186999999,10.217352502
1777262878.44344,-0.3919777599077702,-0.050638492979966185,-0.8961076240723619,-0.2019413401109118,-0.2574796979004634,-0.0287106661953067,-0.8420777308559642,0.0741775006,-1.0863414604,11.3587288822
1777262878.5450578,-0.3927242857178198,-0.03002139840149784,-0.8855807646838967,-0.24619719792745737,-0.0416915525070145,0.0169515103599949,-0.9541715020653,-0.7561319416,-0.6903293201,9.798608547
1777262878.6462457,-0.3956277353659938,-0.009028250786321884,-0.8722234571728381,-0.28744290990451826,-0.0294742477430542,-0.0563523182237669,-0.9318749208710724,0.5910271822000001,1.0013962581,9.8799645154
1777262878.7478175,-0.40108640315140087,-0.00795941815627943,-0.8632799771523985,-0.30629075388826177,0.2469422725415476,-0.0360410490536829,-0.5531384731883029,-0.1507478238,-0.1591227029,10.097711372
1777262878.8498137,-0.4035954569300787,-0.01510398302349411,-0.8641319429372857,-0.3002641537674094,0.1351539339513109,-0.0111482905971137,0.0699440697736727,0.7070790783,0.0143569356,10.7413806514
1777262878.9526682,-0.4023517240594221,0.006892544253913557,-0.8546858295906643,-0.3279904200994842,-0.2160935780125479,-0.0516181126277323,-0.5442809272344317,0.0873380249,-0.0622133875999999,9.320044027
1777262879.0536425,-0.4023718324725079,-0.018144496159760243,-0.8686166745148861,-0.288570196739935,0.1511891464540088,0.0513126800086332,0.8533787377626275,-0.4319044793,-0.2261217357,10.5655081903
1777262879.155203,-0.40431224269202176,-0.020789698702302434,-0.8737379924678332,-0.26959473169091386,-0.1035416578745636,-0.0923933672774498,0.4456261912654521,0.5682953675,0.0490528633,10.5056876253
1777262879.256808,-0.3951982259237692,-0.030646264036056275,-0.8851147470672251,-0.24382586665786607,-0.1577559477646374,0.1450804940720286,0.6947064921406929,0.394815729,0.7214360139,9.6131647955
1777262879.358572,-0.4047766057616372,-0.026863301198816802,-0.8748594915144772,-0.2646793013890968,0.2525927759948793,-0.1272126858547367,-0.6212499472473816,0.2667997199,0.1088734283,9.8524470555
1777262879.4599388,-0.40293120111166353,-0.03324970998758307,-0.8837245131368358,-0.23573690597256136,-0.1716531319336423,-0.0337503044104403,0.7173085059540195,-0.2416750825999999,-0.3780659708,10.2951192365
1777262879.5686295,-0.4150581443788054,-0.056322175833144875,-0.8834289572263168,-0.21001863447862368,0.4163046598319474,-0.1708895503858948,0.2880229598103642,-0.4163511324,-1.6486547714,10.059426210400002
1777262879.6705458,-0.42026854606832037,-0.06185234990188823,-0.879822596181298,-0.21321546671392125,0.2376265776590279,-0.0482583538176432,-0.20005836550985,0.0993021378999999,-1.4165509792000002,10.468598875
1777262879.7720213,-0.4223397165109616,-0.05002024303292371,-0.8775419038848806,-0.22146635426282416,-0.1656971958612116,-0.0838412539426776,-0.1345430687131129,0.2715853651,0.9367900479,10.1348001223
1777262879.87317,-0.4247026169282129,-0.03482212179718888,-0.8720049418652228,-0.24087857598902135,-0.1172861257340189,-0.0688750556068262,-0.4057672344730317,0.3218346397,0.5407779076,10.1898350421
1777262879.974264,-0.41278140586815093,-0.0985568929943291,-0.8996161555151246,-0.10290200459176886,-0.0566577508428659,0.02153299964648,3.1088459134992497,-0.2009970984,0.1100698396,9.5126662463
1777262880.0754244,-0.39544781735780304,-0.1316244930349693,-0.9089514162836877,0.010165599643660428,-0.479529211985442,0.0120645884544108,2.6856690197375745,-1.6773686425999998,0.0203389920999999,10.4913306897
1777262880.1766093,-0.3776647475235441,-0.1849801058095515,-0.8993440118612898,0.11971652877487358,0.1792889474111175,-0.0290160988144057,2.310139614555345,-0.1184447186999999,0.2081755662,10.7856478695
1777262880.2779937,-0.36458129324753674,-0.2157741425464095,-0.8811257688768834,0.21009373965788736,-0.1802052452684145,-0.1375973949041029,2.058004987489114,-0.7286144817,-1.1030912186,10.5535440773
1777262880.3798394,-0.34554031706319144,-0.2491227958584369,-0.8581751354088831,0.28648762422396146,0.0539088572709748,-0.0384845100064749,1.6986635111191313,-0.0131605243,-0.6807580296999999,9.7124669334
1777262880.481162,-0.35148703031601075,-0.2557288562153628,-0.8556204782256922,0.2810217373429532,0.2208277836085825,-0.1380555438327514,-0.2258674218237161,0.4725824635,-0.2213360905,9.8500542329
1777262880.583872,-0.3363583897097697,-0.28231800558304987,-0.8411077376120174,0.31574887351288106,0.3462078737487252,0.0160352125026979,0.6579018615392626,0.1423729447,-0.3900300838,9.6729853605
1777262880.6853106,-0.33408842641563435,-0.2865842202961236,-0.8352355768918175,0.3295996649066575,-0.0441350134598066,-0.042760566673861,0.340099221366745,-0.0275174599,0.4055834306999999,9.5222375367
1777262880.786301,-0.339284933694573,-0.28171357045572687,-0.8311770920153976,0.33862640135964406,-0.2692388537357753,-0.1169806931149199,0.3162754770770224,-0.0586241537,-0.3601198013,9.1346002755
1777262880.887725,-0.3425131017984162,-0.2758934923447632,-0.8399726100313069,0.3178263210865834,0.0893390410864597,0.060322942272054,-0.5238169417547981,0.2105683888,0.6687939167,10.4051890761
1777262880.988789,-0.33520318649706843,-0.2819517685663262,-0.8279894886093866,0.35010774158378566,-0.2069305994395776,-0.0261144889329651,0.8486445321665929,-0.9786644434,-0.0071784678,9.2674019298
1777262881.091546,-0.3337687853362288,-0.2761955762072834,-0.8344754049925905,0.34053663544640395,-0.0232128790515245,0.1081231471610487,-0.2107485071783152,1.3746765837,0.1615155254999999,10.7760765791
1777262881.1928782,-0.34111113613963,-0.26058204148064434,-0.8416396059247999,0.32769340273807496,-0.2927571654063988,0.002748893571891,-0.1844813019358006,-0.5012963347,-0.1052841944,9.0999043478
1777262881.294333,-0.3539675187855701,-0.22747996208148089,-0.865531125994524,0.2716905085402265,-0.2557998184954189,0.1264491043069892,-1.1838568316277538,-1.0827522265,-0.2057827435999999,10.0821580251
1777262881.3970425,-0.36800189669118766,-0.1965067500703701,-0.8738242383572029,0.24978170803308186,-0.6059783162924312,-0.0716239491787173,-0.241291769088216,0.1040877831,0.1016949604999999,9.4719882621
1777262881.4987032,-0.3662298541404618,-0.20339857960160948,-0.8736302751110303,0.24753758131186715,0.2162462943220974,0.0103847090493662,-0.1411098700237415,0.4654039956999999,-0.3996013741999999,9.7459664498
1777262881.6016366,-0.37452081517040775,-0.19810018412779262,-0.865269653228095,0.2679531736239755,-0.4262312199526652,-0.2002110818193995,0.634994415106837,-0.155533469,-1.5457633996,8.3545401079
1777262881.703076,-0.376049982383283,-0.197350633307387,-0.8637027841787814,0.2713975660991217,-0.0728456796551133,-0.0364991979823314,0.1105666081138407,-0.2309073809,-0.2536391956,9.1836531388
1777262881.8052254,-0.3763493960818944,-0.21947512376584166,-0.8536951150846753,0.2853006354660375,0.4071416812589772,-0.1678352241949047,0.139735423237796,-0.2907279459,0.4211367776,10.5212409722
1777262881.906243,-0.386314495494976,-0.20573295565594912,-0.8647956625767259,0.2460965735560156,0.0992656012071774,-0.0250454747661186,-0.9476047007546714,0.5407779076,-0.8638089586000001,9.6538427797
1777262882.0072114,-0.38878418394439407,-0.19146178375124628,-0.8700631327090049,0.23490293480089788,-0.2561052511145179,0.0455094602457521,-0.140040855856895,-0.5312066172,0.7597211755,10.6384892796
1777262882.1093524,-0.40761593549882313,-0.1631589448674143,-0.8811640216368529,0.17543766645147493,-0.0543670061996233,-0.1401935721664445,-1.3093896380774457,-0.3505485109,0.0681954441,9.7292166916
1777262882.2103949,-0.4058801593194011,-0.17266633824548017,-0.874877357334319,0.20009308216795818,-0.061239240129351,-0.0580321976288114,0.5818491393836096,0.4247260115,-0.3038884702,10.7018990785
1777262882.311422,-0.42044003487606063,-0.1337438293540924,-0.8858874321768095,0.14333953639627584,-0.360410490536829,-0.063071835843945,-1.108720407329398,0.7680960546,-0.7812565789,10.9399849272
1777262882.4126112,-0.4330811752605802,-0.11056811034530989,-0.8874000571886972,0.1128562231827693,-0.2551889532572209,-0.1658499121707611,-0.5630650333090206,-0.7633104094,-0.6795616184,9.4002035841
1777262882.5150092,-0.4390418995396919,-0.10284787063880693,-0.8870126848517906,0.09936308603128316,-0.0339030207199898,-0.0923933672774498,-0.2842050520716266,-0.3756731482,-0.5407779076,9.2817588654
1777262882.6168246,-0.44889237403983306,-0.08636089635259629,-0.8875072444748195,0.05803725626501964,0.1278235510929347,-0.1237002107350981,-0.9860892107611464,-0.107677017,0.2333002035,9.9457671369
1777262882.717875,-0.4545520769284096,-0.09171808530070424,-0.8845554201482602,0.05031809689542171,0.2922990164777503,-0.1108720407329397,-0.3310889591033243,0.1758724611,0.6005984726,10.3405828659
1777262882.8195784,-0.45064052706917623,-0.11474327750433375,-0.8796212491902582,0.1001176987517608,-0.0731511122742123,-0.040317105721069,1.1441505911448828,-1.0348957745,-0.8063812161999999,10.3441720998
1777262882.9211586,-0.45952370773320533,-0.09424453570413964,-0.8795538098339825,0.07963055398253491,-0.2984076688597305,-0.1305724446648258,-0.3121521367191858,-0.4725824635,-0.5479563754,9.260223462
1777262883.0241416,-0.4535620637725521,-0.11720230394344813,-0.8748785499467115,0.12301462148814107,0.0116064395257622,0.0154243472644998,0.9549350836130476,-1.1066804525,-0.3158525832,10.2149596794
1777262883.1252053,-0.46293941512917147,-0.09669295514347911,-0.8764578899655364,0.09032794397439534,-0.1085812960896972,-0.1140790832334793,-0.6861543788059207,0.1375872994999999,0.2859423007,10.0606226217
1777262883.2268493,-0.45801932998925043,-0.11856075484438042,-0.8731178535623585,0.11758764627965296,0.2341141025393893,0.0222965811942275,0.4908302188921053,-0.4594219392,0.8781658942,10.8705930718
1777262883.3288414,-0.4669588191617425,-0.08190410977301618,-0.8768888794642655,0.07941707046514558,-0.5135849490149814,-0.0748309916792568,-0.5865833449796443,0.1770688724,0.0813559683999999,10.8897356526
1777262883.4298637,-0.4688399767469473,-0.10767276624694871,-0.8706301191549408,0.10295070292574639,0.4175263903083435,-0.1186605725199644,0.3049744701703591,0.0203389920999999,-0.0969093152999999,9.4133641084
1777262883.5318274,-0.46829728705228646,-0.1092069947327318,-0.8725380709713918,0.08630641891792172,0.3301726612460273,0.0444404460789056,-0.5493205654495653,-0.2596212521,-0.5084748025,10.8203437972
1777262883.6328163,-0.4697062599211529,-0.10759484863452588,-0.8678440693244371,0.12102086298071665,-0.6516404928477328,-0.0952949771588903,1.136667491976957,-0.1854437515,-0.4402793584,9.702895643
1777262883.7344155,-0.4420765499687683,-0.2037630058258613,-0.82821440480182,0.27768662391856097,0.3695734691097992,-0.0755945732270044,3.429550163553208,-0.6867400861999999,0.6053841178,10.0091769358
1777262883.835894,-0.42779690269011594,-0.23951881663974528,-0.809074018708884,0.32406755279493193,0.3567452991076409,-0.0378736447682769,0.9295841762278296,-0.3864408499,-0.0933200814,9.6239324972
1777262883.9373384,-0.41949441286446104,-0.24684656992017262,-0.8025719834750928,0.34491943963047617,-0.0887281758482617,0.0710130839405192,0.5502368633068624,-0.394815729,0.4127618984999999,10.7605232322
1777262884.0400765,-0.41135991534471467,-0.27369057649505363,-0.7810445433481524,0.3818977738760338,0.1715004156240928,-0.1466076571675237,0.8356636458548851,0.2093719774999999,0.3254238735999999,9.9086783866
1777262884.145877,-0.40506163325154604,-0.27748034411677813,-0.7730444486174275,0.40166156445221635,-0.1934915641992213,0.0441350134598066,0.576198635930278,0.0634097989,-0.6209374647,10.624132344
1777262884.2469287,-0.3835610369900423,-0.30762913975454004,-0.7401586003585222,0.458705231703671,0.00305432619099,-0.0158824961931484,1.4928019258464,-0.6556333924,-0.3086741154,10.1060862511
1777262884.3496137,-0.35729861222751347,-0.34219252320343085,-0.70292826786668,0.511012552681352,0.2481640030179437,-0.0375682121491779,1.2925908440270004,0.3218346397,-0.2572284295,10.1623175822
1777262884.4543488,-0.35307231427983293,-0.3473461212681725,-0.6935591838208369,0.5231312182108935,-0.0580321976288114,-0.020616701789183,0.3663664266092597,0.0394815729,0.3074777040999999,9.248259349
1777262884.555861,-0.34470604147926437,-0.3531587574263154,-0.6851570343324178,0.5357391859156866,0.0258090563138661,0.0453567439362026,0.3346014342229629,-1.447657673,-0.2440679052,10.4350993586
1777262884.6573377,-0.32582848006792614,-0.37603329785899936,-0.6573552351298393,0.5659671857319148,0.2359466982539834,-0.0613919564389005,0.7878634409658902,-0.2811566554999999,0.466600407,11.3850499308
1777262884.7589924,-0.3291876302859701,-0.37182663041128405,-0.6651062813165842,0.5576863773994508,0.0258090563138661,0.0264199215520641,-0.2672535417116317,0.3026920589,0.0969093152999999,10.1970135099
1777262884.865561,-0.3373692662188808,-0.37286175583751496,-0.6613110467607518,0.5566181713498923,-0.1204931682345585,-0.1580613803837365,0.0789543320370934,-0.5958128274,-0.2835494781,9.714859756
1777262884.9672673,-0.3512854788275965,-0.36396765976414397,-0.6608066769602886,0.5544912900085799,-0.4755585879371549,-0.1291979978788802,0.2280054501574092,0.3756731482,-0.1411765334,9.5988078599
1777262885.0687385,-0.33016247891595585,-0.37149001211741606,-0.6445256891320413,0.5810116560465377,0.0082466807156732,0.2069305994395776,0.7200573995259106,-1.3998012210000002,0.0011964113,10.2939228252
1777262885.1702197,-0.34869392857163095,-0.3556772560471329,-0.6680414861173019,0.5528352435710402,-0.0971275728734844,-0.0358883327441334,-0.7826710864412072,0.3517449222,0.3720839143,10.2795658896
1777262885.2734149,-0.355959480865453,-0.35506364140826124,-0.67613282735213,0.5385787391911395,0.1649336143134641,-0.0890336084673607,-0.4676173398405807,0.4869393990999999,0.2811566554999999,9.0388873715
1777262885.3752675,-0.3335023508412645,-0.3762472623333141,-0.6325101601317749,0.589190187375955,-0.2641992155206416,-0.0280998009571087,1.6676621002805818,-0.8051848049,-0.4019941968,9.4779703186
1777262885.476471,-0.3734432015641717,-0.34032853196559326,-0.6753368861115631,0.53724924922496,-0.4691445029360758,-0.0960585587066379,-1.276708347833852,-0.4378865358,0.0669990328,10.1838529856
1777262885.578388,-0.37763219875755505,-0.33906613010481373,-0.6722359635620374,0.5390054648805513,-0.1817324083639095,-0.063071835843945,0.1771509190774244,0.4043870194,0.4103690759,8.4622171249
1777262885.6800058,-0.3332827128073309,-0.38585135644666296,-0.6152634782436299,0.6012422277348847,0.5190827361587635,-0.0174096592886434,1.6219999237252802,-0.8374879099999999,-0.5635097223,11.1158573883
1777262885.7812388,-0.3512832815925666,-0.3755626113008086,-0.6272469439491903,0.5849051652814123,-0.2557998184954189,-0.121867615020504,-0.321620547911255,0.2440679052,0.2117648001,8.641678819900001
1777262885.886389,-0.3623999105360087,-0.3657569818043519,-0.6327222064215214,0.5784036173866356,-0.3283400655314332,-0.0339030207199898,0.0058032197628811,-0.3744767369,-0.4163511324,10.4542419394
1777262885.987486,-0.37413898728916917,-0.3648438187218201,-0.6382209500093948,0.5653167475847679,0.0119118721448612,-0.1783726495538204,-0.3287982144600818,0.0059820565,-0.0945164927,10.6636139169
1777262886.0888777,-0.37198672982806663,-0.3688332016277545,-0.6416633484232667,0.5602286046776643,0.3045163212417107,-0.0123700210735098,-0.3286454981505322,1.07677017,0.4953142781999999,10.4901342784
1777262886.189881,-0.405245366455764,-0.34149160565255554,-0.6753348282959873,0.5129157298478987,-0.2095267767019192,-0.1553124868118454,-1.2328787669931445,0.3445664543999999,-0.0203389920999999,9.9613204838
1777262886.2914455,-0.40066125013946013,-0.34064225166171846,-0.6633433397378375,0.5323617497951666,-0.4615086874586006,0.0759000058461034,0.8173376887089445,-0.8913264185,-0.1028913717999999,11.0680009363
1777262886.394101,-0.37911572558996803,-0.36075159549485664,-0.6334901149446962,0.5699296686659355,-0.0152716309549503,0.0584903465574599,1.109331272567596,-0.6807580296999999,0.7453642399,10.5667046016
1777262886.4954257,-0.3994183736723614,-0.34066079337633076,-0.6599161224726989,0.5375182768332001,-0.0989601685880784,-0.0404698220306185,-0.9095783396768448,0.2093719774999999,0.5970092387,10.5774723033
1777262886.596763,-0.41376719270816703,-0.3292181405808058,-0.6756019071297207,0.513784185464679,-0.0044287729769356,-0.0884227432291627,-0.658360010467911,-0.2548356069,-0.2440679052,6.544369811
1777262886.6991065,-0.4171764472387438,-0.33688268730140397,-0.6659367932101122,0.5186540796281045,-0.0691804882259252,-0.1736384439577858,0.2637410665919931,-0.1124626622,0.8183453291999999,9.6107719729
1777262886.8002646,-0.4213826063527925,-0.33331474502600844,-0.6581827905908973,0.5273835359409258,-0.5039638215133626,-0.0276416520284601,0.5934555789093718,-0.3158525832,-0.5934200048,9.6275217311
1777262886.901686,-0.4448021457449457,-0.30597976925233733,-0.6860879656918086,0.48765842070229254,-0.1971567556284094,-0.0589484954861084,-1.0086912245744728,0.7836494015,0.8554340795,9.4049892293
1777262887.0030906,-0.4381029738238712,-0.3119878694993953,-0.6832889037214981,0.49380727785542206,0.1821905572925581,0.0458148928648511,0.0378736447682769,-0.0538385085,0.0323031051,11.3407827127
1777262887.1041253,-0.4332728222215881,-0.32221500667370395,-0.6829996793388144,0.49189794573822093,0.4781547651994964,-0.0476474885794451,-0.33857205827125,-0.2297109696,0.442672181,9.7734839097
1777262887.2056532,-0.41060666485185315,-0.34847860389668756,-0.6604872103388574,0.5231839775683575,0.3903428872085318,0.042455134054762,0.6531676559432279,-0.490528633,-0.0849452023,9.7531449176
1777262887.3094206,-0.41283280143574275,-0.34240845465534575,-0.6641051633961962,0.5208549320009996,-0.142178884190588,0.0459676091744006,-0.000305432619099,-0.1686939932999999,-0.1447657673,9.5820581017
1777262887.4112248,-0.40757145584759724,-0.3459927282522732,-0.6538163761902523,0.5354425147485629,-0.2055561526536321,0.0355829001250343,0.5459608066394762,-0.1674975819999999,-0.7106683122,11.054840412
1777262887.5124588,-0.3698635159771097,-0.38883236607699645,-0.5846629281484298,0.608423890958367,-0.2608394567105525,-0.0502436658417867,2.5179865118522198,-1.3292129543,0.0143569356,9.5880401582
1777262887.6141765,-0.3428410223289964,-0.4177557673069006,-0.534883794348476,0.6494917080560833,-0.0699440697736727,-0.0884227432291627,1.549459676689266,-0.3361915753,-0.1878365741,8.6488572877
1777262887.7152572,-0.3435102795344758,-0.4260568224326153,-0.5182430668347535,0.657191292996551,-0.281303442190186,-0.1605048413365285,0.6029239901014412,-0.693918554,-0.1471585899,8.347361640099999
1777262887.817129,-0.2975695010678523,-0.4613941070782045,-0.46532921659656057,0.6942885496458708,0.6426302305843121,-0.0386372263160244,1.09573952101769,-0.0263210486,-0.8171489179,11.168499485499998
1777262887.918338,-0.29413713383300244,-0.47336713722483675,-0.44630896295515005,0.700153704183565,-0.1250746575210436,-0.1983784861048055,0.5319109061609218,-0.0418743954999999,-0.6293123438,9.21236701
1777262888.0199878,-0.24656688656452194,-0.49819895697459393,-0.3797285730109723,0.7394651990177465,0.0762054384652024,0.0349720348868363,1.781435750894962,0.3780659708,0.2895315346,9.9014999188
1777262888.1214414,-0.24665504783217734,-0.5011427304015558,-0.3730540689825985,0.7408427044657364,-0.1322523240698703,-0.0652098641776381,0.2434297974219091,-0.3732803256,0.0155533468999999,10.277173067
1777262888.2233446,-0.2594078495389113,-0.4927964236962888,-0.3790334834443549,0.7390486254758772,-0.4749477226989569,0.0394008078637719,0.1737911602673353,0.2404786712999999,1.0636096457,10.959127508
1777262888.32513,-0.23043512965747426,-0.5087144543128369,-0.34312607352222924,0.7552309267119252,0.2822197400474831,-0.0384845100064749,0.7428121296487867,0.047856452,-0.2979064137,10.4590275846
1777262888.426273,-0.1689154970977978,-0.5337139577106346,-0.25201794559703744,0.789369318685559,0.0345138859581878,-0.0317649923862968,2.298380458720033,-0.8530412569000001,0.4570291166,9.9768738307
1777262888.5279207,-0.19132728221835854,-0.5368153584307342,-0.27459708925764614,0.7744802002653441,-0.1049161046605091,-0.2405281875404685,-0.5519167427119068,0.6137589969,1.1964113,8.873782612100001
1777262888.629355,-0.2385834192131506,-0.5085817887185367,-0.3421193906959108,0.7532442092510734,-0.2620611871869486,0.1962404577711124,-1.510669734063692,0.2524427843,-0.7357929495000001,10.4961163349
1777262888.7311504,-0.2784160711063265,-0.48579985540379295,-0.38806349717953564,0.7320448852332481,-0.4993823322268775,0.0549778714378213,-0.8646797446692907,-0.0215354033999999,-0.4450650036,9.8775716928
1777262888.8326576,-0.269243405175304,-0.49011852975414144,-0.38897762348647186,0.73211216626147,0.4657847441259867,0.0062613686915296,-0.3330742711274678,0.1543370577,0.6233302873,10.0570333878
1777262888.937674,-0.26258254458458924,-0.4940095227475252,-0.36854207715094667,0.7424161475099462,-0.3260493208881906,0.000916297857297,0.7457137395302272,-0.3218346397,-0.3996013741999999,10.1252288319
1777262889.042243,-0.24532219185789764,-0.5044696737808185,-0.34973847316982704,0.7503401700577874,0.2635883502824436,-0.0404698220306185,0.2939788958827949,-0.6795616184,-1.6127624323999998,11.1768743646
1777262889.1438603,-0.21415418078066686,-0.5209213424231882,-0.3188753925932496,0.7622974654691471,0.5595525581893821,-0.0568104671524154,0.4071416812589772,0.9403792818,0.4211367776,9.1441715659
1777262889.2454555,-0.25144760384739406,-0.5096906258379535,-0.3573453595014749,0.7411436179952446,-0.3888157241130368,-0.121562182401405,-0.777784164535623,-1.064806057,-0.6508477471999999,9.9457671369
1777262889.3475726,-0.22369039538738114,-0.5292079881581779,-0.33850959200928615,0.7451931081261537,0.9498954453979138,-0.1395827069282465,-0.2156354290838994,-0.0729810893,-0.1986042757999999,9.5796652791
1777262889.4492984,-0.23143785185054785,-0.5246376442066328,-0.34887412058325307,0.7412683124209345,-0.0610865238198015,0.0255036236947671,-0.221285932537231,-0.4259224228,0.3840480273,9.5712904
1777262889.5568864,-0.21511140980416255,-0.5337534270527121,-0.33705248738776344,0.7451375585938964,0.4529565741238284,-0.0317649923862968,-0.0392480915542224,-0.2009970984,0.7094719009,10.1826565743
1777262889.661623,-0.19559010897646337,-0.5424892423618428,-0.3087206595634044,0.7564003474027398,0.0044287729769356,-0.0280998009571087,0.7064656479760048,-0.3553341561,-0.2225325018,8.1451681304
1777262889.7679565,-0.15926792731874428,-0.5536218981888876,-0.25513146731579445,0.7765593702728812,-0.1131627853761823,0.0093156948825197,1.398575962854356,-1.0301101293,-0.7381857721,10.888539241299998
1777262889.869072,-0.12660294262283023,-0.5660779725621518,-0.1976471589902954,0.7902297289030761,-0.3147483139815274,-0.1069014166846526,1.6467399658722996,0.2033899209999999,-0.2141576227,10.0366943957
1777262889.9703803,-0.0995531946809912,-0.5735048960562885,-0.158537106217358,0.7975257247139435,-0.0087048296443217,-0.0493273679844897,0.9680686862343048,0.1603191142,0.0203389920999999,10.5200445609
1777262890.07203,-0.11194267063329853,-0.5744161647718339,-0.16795863901294816,0.7932873399476514,-0.2232712445613746,-0.0807869277516875,-0.0875064453718657,-0.5288137946,-0.6795616184,9.9984092341
1777262890.17308,-0.07121639860958932,-0.5825800451236892,-0.11139651120307882,0.801947337974597,0.0131336026212573,-0.041233403578366,1.386664090709495,-1.0564311779,-0.741775006,9.93021379
1777262890.2744422,-0.056096097622388756,-0.5866276937832052,-0.09268094532180947,0.8025779831844337,0.1096503102565437,-0.0563523182237669,0.3727805116103388,-0.4283152454,-1.172483074,10.6887385542
1777262890.3767266,-0.0639362772649692,-0.5866901006891595,-0.0975060329410614,0.8013734783126638,-0.2131919681311073,-0.0242818932183711,0.0352774675059353,-0.7872386353999999,-0.0658026215,9.4504528587
1777262890.4804738,-0.12435423945052666,-0.58637311556927,-0.1650764870348152,0.7832319872786817,-0.4202752838802345,-0.2241875424186716,-1.362382197491124,-0.251246373,-1.1712866627,9.894321451
1777262890.581557,-0.10635803775539177,-0.5927542433757018,-0.15241489412648704,0.7836453756727808,0.5459608066394762,-0.0658207294158361,-0.1023199273981675,0.2428714938999999,-0.2021935097,10.624132344
1777262890.6825776,-0.09555110761489417,-0.5974322149777263,-0.1473276870824691,0.7824572109446656,0.4723515454366153,-0.0598647933434055,-0.242513499564612,-0.1986042757999999,0.155533469,10.7449698853
1777262890.783934,-0.15013516171303787,-0.5890084899973251,-0.21077974191640403,0.7655718988613186,-0.277943683380097,-0.0766635873938509,-1.4222469908345292,1.0516455327,0.1651047594,9.475577496
1777262890.887086,-0.10992788300162158,-0.5989335144363421,-0.16144186309003833,0.7766151110207237,0.1643227490752661,-0.023365595361074,1.1078041094721007,-0.11964113,-0.4295116567,9.6586284249
1777262890.9881852,-0.10207788339737456,-0.5989310445378361,-0.14940682527077334,0.780089296281161,-0.1211040334727565,0.0316122760767473,0.4059199507825812,0.2201396792,0.8207381518,8.6213398278
1777262891.0903022,-0.08510032494791057,-0.6003663052023396,-0.1264476094171813,0.7850663897684903,-0.0632245521534946,0.0284052335762077,0.6284276137962083,0.0155533468999999,0.1328016543,10.719845248
1777262891.1913753,-0.07383462627188027,-0.6049565551849232,-0.10364085475429798,0.7860245463901756,-0.3211623989826065,-0.0813977929898855,0.8083274264455238,0.5324030285,0.8769694829,10.013962581
1777262891.2924714,-0.08354133523914353,-0.6031234476667428,-0.11289528807904572,0.7851863511998869,-0.1676825078853552,0.0128281700021583,-0.102472643707717,0.5670989562,0.4247260115,10.8502540797
1777262891.394634,-0.08217806721937518,-0.6051304906458059,-0.10861730277139901,0.7843890208930261,-0.0911716368010538,-0.0448985950075541,0.1715004156240928,-0.5012963347,0.1579262916,10.2185489133
1777262891.497427,-0.08933438966527804,-0.6017339862117866,-0.11769409658083867,0.784909979737056,-0.0445931623884551,0.0577267650097124,-0.1840231530071521,0.4271188341,-0.4331008906,10.1276216545
1777262891.5986483,-0.061158790781668956,-0.6026916802182561,-0.07220512635241202,0.7923438399042751,-0.420122567570685,0.0650571478680886,1.4653129901274893,-0.8697910151,0.1938186305999999,9.9338030239
1777262891.700053,-0.027733268891529186,-0.607230264300235,-0.03325250082752407,0.7933451601309308,0.2293798969433547,-0.0531452757232273,0.7921394976332763,0.8817551281,0.6628118601999999,9.9756774194
1777262891.8018794,-0.07372026220767863,-0.6049314605891337,-0.0937815242812723,0.7872917354024552,0.0363464816727819,-0.0383317936969254,-1.533424464186568,0.969093153,-0.2751745989999999,10.2699945992
1777262891.9033716,-0.03469517467207486,-0.6073516739645646,-0.04089479261450156,0.7926208456279284,-0.1017090621599695,0.0268780704807126,1.398270530235257,-0.6903293201,0.3541377448,10.0426764522
1777262892.0043895,-0.011041454910422776,-0.6161918638301452,-0.013365387119776456,0.7874052575707958,0.1650863306230136,-0.1996002165812015,0.558636260332085,0.3290131074999999,0.9547362174,10.4769737541
1777262892.1074357,0.06800351475656821,-0.6126201449461257,0.08310109252992103,0.7830493524722912,0.2261728544428151,-0.001832595714594,2.204459928347088,-0.1124626622,-0.5527420206,10.8897356526
1777262892.2087214,0.1207450713920508,-0.6104400763653195,0.15251429176674558,0.7678039669788894,-0.2267837196810132,-0.1484402528821177,1.962099145092025,-0.8159525066,-0.5108676251000001,10.4147603665
1777262892.3113594,0.14519890967395055,-0.6086453431879129,0.1884178120724039,0.7569457384377111,-0.3944662275663684,-0.0841466865617766,1.2495248447340404,-0.107677017,-0.6532405698,10.9040925882
1777262892.412796,0.18226643863619477,-0.5985432328164522,0.2313319951449819,0.744990236055984,0.1904372380082312,-0.000305432619099,0.9734137570685376,-1.0612168231,-0.1220339526,9.9708917742
1777262892.5161197,0.19941869534480344,-0.5950974461835576,0.25319130136761,0.7361965623422594,-0.1136209343048308,-0.0474947722698956,0.6765332513043021,1.0743773474,0.1627119367999999,10.6683995621
1777262892.6174622,0.2239453706291601,-0.5883478505950294,0.29318866287782896,0.7195385226892913,-0.7176139385731185,-0.0372627795300789,1.6809484192113888,-2.344966148,-0.0550349198,11.3264257771
1777262892.719831,0.26960621646826904,-0.5654834842689968,0.3517641990090717,0.6955593902436845,0.0351247511963858,0.0765108710843014,1.553124868118454,-1.4165509792000002,0.0777667345,10.2077812116
1777262892.8212323,0.26183048722975993,-0.5752899029175307,0.3337865505250731,0.6993374451913306,0.1678352241949047,-0.1464549408579741,-0.575893203311179,0.0263210486,-0.346959277,9.6119683842
1777262892.9223902,0.29359093855935775,-0.5634717136855739,0.364962791072226,0.6805190297154433,0.2748893571891069,-0.0887281758482617,0.7086036763096978,-0.1926222193,-0.4115654871999999,10.241280728
1777262893.024119,0.33032299729108383,-0.5491378547404344,0.40239941506843085,0.6537652825780006,0.0448985950075541,-0.1401935721664445,1.1391109529297492,-0.9343972253,-0.5359922624,9.9349994352
1777262893.1251993,0.30505401283626304,-0.5701311335170479,0.3701941713907302,0.6669698758680108,-0.3599523416081805,-0.1452332103815781,-0.579252962121268,-0.6089733517,0.023928226,10.2723874218
1777262893.2270267,0.31167569449511934,-0.5738969232673564,0.37165050809993844,0.6598306470256627,-0.1081231471610487,-0.1660026284803106,0.2293798969433547,-0.5551348432,-1.136590735,10.3621182693
1777262893.3291318,0.31074721088728974,-0.5782117907889345,0.36686329526699624,0.659180262526317,-0.0149661983358513,-0.0872010127527666,-0.0791070483466429,0.0562313311,0.2452643165,10.1156575415
1777262893.4316669,0.3382218580849119,-0.5643607634424974,0.39910867306673203,0.6386040796010496,-0.3116939877905373,-0.0345138859581878,1.264796475688991,0.5754738353000001,0.1160518961,10.3860464953
1777262893.5326357,0.3123166603256964,-0.5849027202065881,0.3620994585335367,0.6551573045518586,0.1846340182453501,-0.139124557999598,-1.2098186042511694,0.0311066937999999,-0.5180460929,9.3427758417
1777262893.6345353,0.2831459753075213,-0.6010732171715611,0.3278150750696988,0.6716223796325059,0.0145080494072028,-0.0361937653632324,-1.0067059125503293,-0.4247260115,-0.4821537539,9.2733839863
1777262893.7373676,0.26350862897159605,-0.6188918117494494,0.2945671407707923,0.6787977072627115,0.4349360495969869,-0.220675067299033,-1.2405145824706196,0.0873380249,-0.3720839143,10.4614204072
1777262893.8385,0.19672244670899122,-0.6432601068551247,0.22385298812999047,0.7052705534720956,-0.3752239725631309,0.0029016098814405,-1.678046809329948,0.0083748791,-0.7501498851,9.8488578216
1777262893.9403436,0.18295988443311673,-0.650552440156445,0.2037549866204737,0.7083721541125162,0.4134030499505069,-0.0867428638241181,-0.9057604319381072,0.2249253244,0.2440679052,10.432706536
1777262894.0413554,0.1274497542716409,-0.6649567296775921,0.1444033935871552,0.7216209307614996,-0.2881756761199137,-0.0322231413149453,-1.367879984634906,-0.0705882667,-0.6388836341999999,9.7280202803
1777262894.142682,0.1410394426595764,-0.661005234129901,0.15922817005342718,0.7196015188481663,0.10155634585042,0.0308486945289997,0.3040581723130621,0.3493520996,0.1328016543,9.9050891527
1777262894.243683,0.09903247918739237,-0.6675238768729413,0.11342357090379407,0.7292047280660959,0.0847575517999746,0.0277943683380097,-1.3362677085581585,0.9308079914,0.1531406464,10.0343015731
1777262894.345086,0.1118266537403508,-0.6672885686601125,0.12693802278745653,0.7253326850622307,-0.0653625804871876,-0.0468839070316976,0.43707407793068,-0.5180460929,-0.0514456858999999,9.8644111685
1777262894.4522488,0.13239464850196161,-0.667541990467513,0.14607513910618594,0.7179981906285151,0.1722639971718403,-0.1017090621599695,0.360410490536829,-0.1734796385,-0.0095712904,9.7950193131
1777262894.5547645,0.10849229523668613,-0.6770811544540013,0.11834371994161212,0.7181819380267745,-0.0746782753697073,-0.1382082601423009,-0.6505714786808863,-0.5802594805,-0.7094719009,10.0067841132
1777262894.6591036,0.08359013280829719,-0.6864920154733885,0.09057576336312692,0.7166152618243371,-0.2903137044536067,-0.1537853237163503,-0.4317290070964473,-0.095712904,0.5934200048,9.5150590689
1777262894.7614968,0.05468884606277793,-0.6974063666045723,0.058247302003732945,0.7122083555709078,-0.5039638215133626,-0.2168571595602954,-0.3466660226773737,0.8817551281,0.2560320182,9.5054877785
1777262894.8632674,0.058950111636774896,-0.6975026056572439,0.06256175639574935,0.7114077776325235,-0.1189660051390635,-0.0119118721448612,0.238542875516325,-0.0299102825,-0.7633104094,10.1838529856
1777262894.9647727,0.08564809460044212,-0.6929424306902017,0.09171345594963407,0.7099886151469214,-0.4729624106748133,0.0519235452468313,1.2556334971160203,-0.7884350467,0.5060819799,10.4506527055
1777262895.066056,0.07921205062290439,-0.6912420197318133,0.08648229878079648,0.7130432898434615,0.1151480974003258,0.0682641903686282,-0.279165413856493,1.1868400096,0.2404786712999999,10.0319087505
1777262895.1680198,0.0819676699284547,-0.6901071037162447,0.09049982645635402,0.7133325086509418,-0.2486221519465922,0.0244346095279206,0.3433062638672846,0.1304088317,0.9236295236,10.420742422999998
1777262895.2691777,0.13289467761460466,-0.683734984286641,0.1411864344453767,0.7034997275428457,0.2730567614745128,-0.0462730417934996,1.165989023410462,-0.1734796385,-0.0454636294,9.4480600361
1777262895.3707,0.1372983631869424,-0.684570391983276,0.14485263058405862,0.7010921860204467,-0.2542726553999239,-0.0455094602457521,0.3688098875620518,0.2129612114,-0.059820565,9.5533442305
1777262895.4723446,0.26134628564203416,-0.649250690508085,0.26938911094236634,0.6615142982291229,0.3171917749343194,-0.0487165027462917,3.3003521656743278,-0.9738787982,-0.0646062102,11.3312114223
1777262895.5752509,0.3447350094222407,-0.6149720043972151,0.3475046491459414,0.6182295090888781,0.0253509073852176,-0.142789749428786,2.4385740308864774,-1.962114532,-0.3756731482,9.7423772159
1777262895.6763074,0.433987820123458,-0.5559372590709748,0.4368503422215936,0.5583458735067516,-0.1464549408579741,-0.0074830991679256,3.152064629101759,-0.5659025448999999,0.3505485109,9.6514499571
1777262895.7777748,0.4813202448776861,-0.5166545594954473,0.48300775939928947,0.5177860488498388,-0.2156354290838994,-0.0238237442897225,1.9297232874675303,-0.9523433948,-0.969093153,10.9220387577
1777262895.8789296,0.5182262100399586,-0.48782767431682056,0.5102657878070842,0.48279869634442735,0.3636175330373686,-0.16004669240788,0.9017898078898202,-0.9236295236,-0.4725824635,9.5150590689
1777262895.980518,0.5506289869477329,-0.4556637011910123,0.5368149596281921,0.4483391676724257,-0.1278235510929347,-0.0865901475145686,1.3665055378489603,0.047856452,-0.5539384319,11.6374927151
1777262896.083086,0.5770449182850882,-0.42056501563658616,0.5642077729082101,0.4145043050366445,0.1502728485967117,0.0198531202414355,1.0557278479157202,-1.0037890807,-0.2584248408,9.8368937086
1777262896.1855242,0.5829092756363657,-0.42751681719386053,0.5533782198730487,0.413785805899205,-0.1122464875188853,-0.2536617901617258,0.0022907446432425,-0.5539384319,-0.1232303638999999,8.673981925
1777262896.2865007,0.5956152457402674,-0.4056246745971548,0.5695685749738053,0.3953514143164559,-0.242208066945513,0.0639881337012421,0.937219991705305,-0.8638089586000001,0.5551348432,9.6466643119
1777262896.3879414,0.5742071133635289,-0.43070760751836623,0.5540641170693231,0.42165163579039977,0.0204639854796335,0.082466807156732,-0.9027061057471172,0.5324030285,-0.0346959277,10.394421374399998
1777262896.488966,0.5691880370066404,-0.4447043070113692,0.5409408345447273,0.4308666515015049,0.1204931682345585,-0.1311833099030238,-0.5329799203277684,0.7585247642,0.2596212521,11.2055882358
1777262896.5900636,0.5821250061550853,-0.43814881206833295,0.5423566274571074,0.4183364487412052,0.2331978046820923,-0.18157969205436,0.100945480612222,-0.6185446421,-0.7585247642,11.0488583555
1777262896.6940396,0.5862093311971249,-0.4294354452085902,0.5499006583958137,0.41176824101886506,0.0407752546497175,0.0551305877473708,0.2205223509894835,0.9343972253,1.1341979124,10.2221381472
1777262896.795022,0.5968277129193776,-0.419233799229582,0.5545408731310647,0.4006546177220372,-0.2014328122957955,-0.0813977929898855,0.5687155367623523,-0.6149554081999999,-0.1722832271999999,9.6885387074
1777262896.8961277,0.5767735608400139,-0.44245927863539003,0.538653328585426,0.4259279726306108,-0.4697553681742737,0.0649044315585391,-0.3750712562535814,0.1591227029,0.3050848815,10.4733845202
1777262896.9972987,0.5932659379972944,-0.42167630646673304,0.5527799983077839,0.40578182912448274,0.0106901416684652,-0.0271835030998116,0.7041749033327621,-0.909272588,-0.5359922624,10.0510513313
1777262897.09841,0.6226314562402266,-0.3755089645636187,0.5831875105338106,0.36223668338520093,0.2646573644492901,0.0262672052425146,1.2441797738998075,-0.0023928226,0.7322037156,10.4662060524
1777262897.199589,0.6242938264195134,-0.3814975233537579,0.5757217899570777,0.3650496932447005,-0.0546724388187223,-0.1351539339513109,-0.0926987998965488,-0.5395814963,-1.2191431147,9.5270231819
1777262897.3009126,0.655817370741893,-0.3182150199858354,0.6120287754006322,0.3066978242019454,0.2887865413581117,0.0838412539426776,1.6569719586121163,-1.2861421475,-0.1256231865,10.1611211709
1777262897.4019191,0.6663979958532754,-0.30365861327034543,0.6152951732897939,0.29174819182944567,-0.0510072473895342,-0.1007927643026725,0.5076290129425508,-0.1028913717999999,0.5491527867,10.5930256502
1777262897.5030878,0.6663576027386036,-0.306670125450026,0.6121356915689751,0.29531487354398434,-0.2739730593318099,-0.040927970959267,0.1716531319336423,-0.4833501651999999,-0.1710868159,10.5116696818
1777262897.604223,0.6804578949663238,-0.27008083758585416,0.6289044210513186,0.2617491614676699,0.079412480965742,0.0444404460789056,0.9932668773099728,-1.0396814197,0.3996013741999999,11.3312114223
1777262897.7053638,0.6765879288027312,-0.290589953491485,0.6164847437663202,0.27880605128228686,0.0435241482216085,-0.1262963879974396,-0.6165157416513469,-0.2775674216,0.0203389920999999,8.97308475
1777262897.8064604,0.677899207514182,-0.2852490765660657,0.6199402984983023,0.273422118834023,0.1582140966932859,0.0293215314335047,0.0061086523819801,-0.3050848815,0.3768695595,9.6406822554
1777262897.9075372,0.6883949103597179,-0.26799821510270744,0.6234673041906829,0.2560818710838413,0.0656680131062866,-0.0960585587066379,0.4570799144816649,-0.0490528633,-0.9762716208,10.0797652025
1777262898.0102952,0.6973857533152742,-0.24115649955375068,0.6344852944164616,0.23005448260167632,0.3231477110067501,0.0294742477430542,0.4557054676957194,-0.7788637562999999,0.4378865358,9.5820581017
1777262898.1130135,0.7064107458005393,-0.22127474925714002,0.6395504706253983,0.20735606834994552,0.6064364652210797,-0.060933807510252,0.0117591558353117,0.059820565,-0.3385843978999999,9.1585285015
1777262898.2145452,0.7117129419949251,-0.21630796598026028,0.6368387041343416,0.20276098482425867,-0.1895209401509342,-0.1087340123992467,0.3275764839836857,-1.124626622,-0.6568298037,9.0424766054
1777262898.315595,0.7077689765927754,-0.2231688794584077,0.6370603488873154,0.20835747860267897,0.180968826816162,0.0539088572709748,-0.3631593841087201,0.1004985492,-0.1483550012,11.0596260572
1777262898.4174683,0.7086502741619389,-0.22321192874781615,0.6362863899707419,0.207679690227257,0.0529925594136778,-0.0245873258374701,-0.0441350134598066,-0.7716852885,-0.3002992363,9.7495556837
1777262898.5184443,0.7019009733955336,-0.23892856692265765,0.6336589107893823,0.22073637722836098,0.2739730593318099,0.0474947722698956,-0.6983716835698811,-0.3290131074999999,0.011964113,10.3346008094
1777262898.6205115,0.7059380381701782,-0.23590099094323008,0.6316654559075985,0.21679704921766826,-0.0355829001250343,-0.0841466865617766,0.1362229481181574,-0.1052841944,0.0646062102,10.0175518149
1777262898.7226553,0.6860768350660993,-0.2901211097185173,0.6104772326702919,0.26915769814850643,-0.6085744935547728,-0.0244346095279206,-0.9755517854022304,1.1425727915,0.1842473402,11.0919291623
1777262898.8261576,0.6938921304029684,-0.2768886794871841,0.6151861115801794,0.2517785111075449,0.5966626214099116,-0.0569631834619649,-0.1440114799051821,0.1399801221,-0.1220339526,9.2039921309
1777262898.928,0.6673944295361156,-0.33963210416607537,0.5873071722456646,0.3070911829940555,-0.1472185224057217,-0.0532979920327768,-1.6615534478986018,0.8602197247000001,0.0789631458,10.0929257268
1777262899.0293972,0.71038690318526,-0.2369473648957221,0.6262731889008553,0.21676781798916392,-0.0177150919077424,-0.0007635815477475,2.9504791004964144,0.0394815729,0.311066938,10.4195460117
1777262899.1305852,0.7414611725867584,-0.10779009914597341,0.6543041962255337,0.10248240275300374,0.0303905456003512,-0.0114537232162127,3.482084574038237,-0.6245266986,0.011964113,10.9136638786
1777262899.2338946,0.7506186610478146,-0.03456651635633129,0.6585733573235767,0.040717498171254654,-0.3039054560035126,-0.0676533251304302,2.165364553102415,-0.2464607277999999,0.442672181,9.3176512044
1777262899.3358662,0.7509747067345349,0.041836187006396366,0.6584715863489488,-0.02649326844396329,0.040927970959267,-0.0210748507178315,1.955990492710045,-0.3984049629,0.2368894373999999,9.3643112451
1777262899.437254,0.7481916852999551,0.07522117247637433,0.6570805282872375,-0.052878697081692454,-0.3318525406510718,-0.000610865238198,1.1695014985301002,-0.3242274623,0.3816552047,9.8297152408
1777262899.5415196,0.7418476369222479,0.12468004077931089,0.6515575067515513,-0.09792745488293006,0.1912008195559788,-0.0048869219055841,1.1038334854238137,-0.0299102825,-0.0622133875999999,10.4398850038
1777262899.642473,0.7274315460587257,0.19144718856364365,0.639371634249821,-0.15935881872805763,0.3113885551714383,0.0062613686915296,1.5274685281141374,-0.0705882667,0.7752745223999999,9.3738825355
1777262899.751105,0.7358056400842641,0.16971908229508814,0.6414271483742037,-0.13548692355218872,-0.2915354349300028,-0.0870482964432171,-0.318871654339364,0.3050848815,-0.7740781111,11.0165552504
1777262899.8559852,0.7382911781473529,0.1812210247496171,0.6325477674569266,-0.1482174022972684,0.6024658411727926,-0.140346288475994,-0.2637410665919931,-0.0251246373,-0.1268195978,9.1944208405
1777262899.9570234,0.7215237119109905,0.24683867590784214,0.6133678839125067,-0.2055578755750867,0.2852740662384731,-0.0700967860832222,1.5141822091833304,0.4295116567,0.6592226263,9.1369930981
1777262900.0616734,0.7264009932505167,0.24147822708275538,0.6113149148998954,-0.20080821116320333,0.1670716426471571,-0.0853684170381726,-0.3092505268377453,0.4737788747999999,0.6843472636,10.4159567778
1777262900.1626775,0.7317285963470295,0.23289901797873702,0.6101810275479824,-0.1949626177835999,0.2623666198060476,-0.0740674101315093,-0.4734205596034619,0.6125625856,-0.4606183505,10.5367943191
1777262900.2643623,0.7242402633976258,0.2475525018702449,0.609334295470625,-0.20713646722592585,-0.1548543378831968,0.0771217363224994,0.5470298208063228,-0.7752745223999999,0.1639083481,10.6672031508
1777262900.3655655,0.7221584706832852,0.2598159977950822,0.6040340141341141,-0.21476894626354534,-0.1091921613278952,-0.0647517152489896,0.4068362486398782,1.1856435983,0.2703889538,9.8668039911
1777262900.4743884,0.7338579263155653,0.23103863025521498,0.6107686012295854,-0.1871774854667832,-0.1846340182453501,-0.0554360203664698,-0.5893322385515353,-0.3385843978999999,-0.8231309743999999,11.3694965839
1777262900.576543,0.7327334429992025,0.22217727363991552,0.615665174032193,-0.1862668893614161,0.3646865472042152,0.1142317995430288,-0.5099197575857933,-0.287138712,-0.0011964113,10.1635139935
1777262900.6775734,0.7236307790344909,0.25712739612706165,0.6048542367723537,-0.2107020409331299,-0.301920143979369,-0.0713185165596182,1.1821769522227092,-0.3852444386,-0.9726823869,9.5210411254
1777262900.77855,0.7364980695930323,0.21131057681429868,0.6178797520027361,-0.17647392350481333,0.2695442863548742,0.0548251551282718,-1.4526375364348805,-0.4869393990999999,-0.0047856452,9.2877409219
1777262900.8796878,0.7285204331280875,0.24734837094818812,0.6066545350570971,-0.20011755794731917,-0.3912591850658288,-0.0992656012071774,1.271515993309169,-0.7334001269,-0.4833501651999999,9.9649097177
1777262900.980845,0.7081458466588116,0.3120690749901685,0.5807565784484104,-0.252713570833762,0.2306016274197508,-0.1382082601423009,1.5412129959735927,0.5060819799,0.4031906080999999,9.8620183459
1777262901.0822158,0.6849919091890783,0.3580323262453381,0.5652481458756811,-0.2882593819686674,-0.2707660168312703,0.0273362194093611,1.5357152088298105,-0.6005984726,0.7094719009,10.3453685111
1777262901.1834242,0.6552946339239872,0.4015328739184171,0.5492688331086412,-0.328121993911892,-0.1035416578745636,0.1351539339513109,1.437976770718128,-0.3481556883,0.8039883936,10.0079805245
1777262901.2845025,0.6516780045237561,0.4132744374916603,0.5407216289352166,-0.33487331595326164,0.0610865238198015,-0.0969748565639349,0.2498438824229882,-1.052841944,-0.4462614149,9.0867438235
1777262901.3886364,0.6528216029956609,0.4151638039037125,0.5384149976008338,-0.3340243418508142,-0.0065668013106286,-0.060017509652955,0.0270307867902621,0.1232303638999999,-0.8590233134,10.8981105317
1777262901.4899468,0.662077543785956,0.40769176485106157,0.5412578116800227,-0.320126119181699,-0.2735149104031614,-0.1256855227592416,-0.0708603676309697,0.4929214555999999,0.9487541609,9.6837530622
1777262901.591046,0.667385173663346,0.4076356180523667,0.5400396181040686,-0.3111068044055322,-0.2817615911188346,-0.1488984018107662,0.1426370331192365,-0.5922235935,-0.6628118601999999,9.5629155209
1777262901.6920786,0.6353303422620256,0.4539103603439445,0.5170425401661211,-0.35069609725831463,0.0371100632205294,0.0395535241733214,1.3999504096403017,-0.3732803256,0.2237289131,10.2592268975
1777262901.7930295,0.6344791944579945,0.4576536830252565,0.5149585305050317,-0.3504382542951764,-0.1039998068032121,-0.0503963821513362,0.1679879405044542,-0.5156532703,-0.4271188341,9.4205425762
1777262901.8941028,0.6561419797102103,0.4317582564924969,0.5271802368385164,-0.324258397423122,-0.0784961831084449,-0.1032362252554646,-0.7967209869197615,-0.729810893,-0.4618147618,9.5437729401
1777262901.9954145,0.660356935962224,0.42525377027322064,0.5325898793590702,-0.3153346926668318,-0.2814561584997355,-0.0091629785729702,0.0258090563138661,-0.5850451257,-0.1758724611,10.0941221381
1777262902.0964704,0.674244040977207,0.41026320592339405,0.5365589987460765,-0.29863609282334397,0.0325285739340443,-0.122783912877801,-0.5451972250917287,0.1603191142,0.8315058535,10.4913306897
1777262902.1975937,0.692156547594196,0.3889103832660319,0.5410893172851143,-0.2772911432597162,0.1041525231127616,-0.1492038344298652,-0.7841982495367021,-0.023928226,0.8709874264,10.552347666
1777262902.2986684,0.6881558458165788,0.39159416339553355,0.540494307133646,-0.2845372506705247,0.1663080610994096,0.0768163037034004,-0.0122173047639603,0.5790630692000001,0.2847458894,10.5930256502
1777262902.4004288,0.6815587435368057,0.4040033156127339,0.5360328565519843,-0.2914237066183332,-0.1499674159776127,-0.022449297503777,0.4616614037681501,0.6149554081999999,-0.7034898444000001,9.9720881855
1777262902.5040658,0.6802948563889112,0.4167104413656975,0.5231005502141837,-0.29986185284763167,0.360410490536829,-0.1635591675275186,-0.0103847090493662,0.143569356,0.2548356069,9.1034935817
1777262902.6050954,0.6245854619460084,0.5000931331708112,0.4827993735673125,-0.3559559295251358,-0.3304780938651263,-0.0893390410864597,2.7259861254586437,-1.0468598875,-1.0456634762,10.5690974242
1777262902.707964,0.5799192432865375,0.5547374980387737,0.4458897393905966,-0.3964118058810019,0.1446223451433801,-0.0729983959646628,1.596801732649612,-0.5910271822000001,-0.6687939167,9.7842516114
1777262902.8110669,0.5303290585889749,0.5957380943789472,0.42294675875467186,-0.43007354229339617,-0.5140430979436299,0.1388191253804989,1.9569067905673423,-0.8829515394,0.251246373,10.7007026672
1777262902.9127018,0.44643457501501016,0.6595682050271675,0.35795998017480307,-0.48737111705728153,0.360715923155928,0.0537561409614253,2.3379339828933543,-0.6137589969,0.3996013741999999,10.1635139935
1777262903.0141406,0.4109689758640338,0.679681592669585,0.33614875257867116,-0.5061041884861326,-0.1798998126493155,0.0644462826298906,1.1537717186465015,-0.7728816998,-0.4366901245,10.6995062559
1777262903.1158602,0.3851193773222474,0.6995918319243524,0.3132943517451642,-0.5139075627778119,0.020616701789183,-0.1414153026428405,0.7657195760812122,-0.71784678,-0.6161518195,8.7242311996
1777262903.218186,0.31539908379240683,0.7368505984222502,0.24794177015467347,-0.5441502477811153,0.7385360729814006,-0.0708603676309697,1.370934310825896,-0.5647061336,0.5455635528,10.1013006059
1777262903.3195684,0.2870533410420185,0.7524214901022057,0.22080398502476659,-0.5501889501127533,0.220980499918132,-0.121867615020504,0.6186537699850401,-0.3553341561,0.3936193176999999,10.4949199236
1777262903.4215827,0.2834391927214126,0.7587236024944423,0.2075910291052666,-0.5485496182500774,0.4137084825696059,-0.1492038344298652,-0.1698205362190482,-0.4390829471,-0.4163511324,10.0331051618
1777262903.5232987,0.2753754311431923,0.7618210398495543,0.20292226064734295,-0.5501087449759513,-0.0678060414399797,-0.0045814892864851,0.2587014283768595,0.3170489944999999,-0.3816552047,9.2279203569
1777262903.62439,0.22677843739245063,0.7762719190502005,0.1692286307245038,-0.5633250558701136,-0.0357356164345838,0.0450513113171036,1.2657127735462876,-0.0059820565,-0.2751745989999999,10.7485591192
1777262903.725746,0.2632129077991561,0.7649153722373345,0.196635707031535,-0.5540377579219138,-0.060933807510252,-0.0077885317870246,-0.8869763258635183,-0.4079762533,-0.4713860521999999,9.9278209674
1777262903.8270123,0.2924396099605108,0.7549084380608315,0.2183082690074455,-0.544916346197903,-0.0531452757232273,-0.0219911485751285,-0.7157813428585245,-0.1459621786,-1.124626622,9.6095755616
1777262903.9285307,0.32041614167242405,0.7466281445080541,0.2450834551771921,-0.5289744889714691,-0.4830416871050806,-0.1076649982324002,-0.3617849373227746,-0.1866401628,-0.4510470601,10.133603711
1777262904.0298476,0.3618478154511653,0.725195747952524,0.28627987979970226,-0.5110783854035179,-0.5873469265273918,0.0461203254839501,-0.7072292295237523,-0.1770688724,-0.789631458,10.7473627079
1777262904.131039,0.3655266137238218,0.7242817332392385,0.2788624805532558,-0.5138501556828076,0.537408693304704,-0.0073303828583761,-0.478307481509046,0.0,-0.0669990328,10.9040925882
1777262904.2326171,0.3484709351830413,0.7326269473376309,0.2679574710591363,-0.5196388717859673,-0.0670424598922321,-0.0016798794050445,0.5090034597284963,-0.2033899209999999,-0.5359922624,10.2197453246
1777262904.3337803,0.35172488767587884,0.7332123542722846,0.25744661767386195,-0.521929579522154,0.6313292236776489,-0.0519235452468313,-0.5210680481829071,-0.5347958510999999,-2.2959132847,9.2039921309
1777262904.4353192,0.3826696444331099,0.721204000671178,0.28333514471688875,-0.5031400683841275,-0.3802636107782646,-0.1166752604958209,-0.5326744877086693,0.9990034355,0.6436692794,9.6598248362
1777262904.5438454,0.3520384031977155,0.7364817909135423,0.25716147486984914,-0.5172344827730919,0.2474004214701962,0.0096211275016187,0.5981897845054065,-0.4510470601,-0.6400800455,9.8297152408
1777262904.6452577,0.38848731516576496,0.7209191382826693,0.29187461420837013,-0.49412793039230674,-0.6293439116535053,-0.1078177145419497,-0.51709742413462,0.370887503,0.8877371846000001,9.7100741108
1777262904.7464693,0.3393278045570385,0.746245881893497,0.24544539949351937,-0.5174265944836658,0.6290384790344062,-0.0116064395257622,0.893237694555048,-0.7561319416,-0.7334001269,9.6957171752
1777262904.8513148,0.2552658039639776,0.7778566222544298,0.178331005559362,-0.54587223504932,0.4554000350766204,0.04001167310197,1.7739526517270363,-1.3160524299999998,-0.4845465765,10.0666046782
1777262904.9547572,0.25283497298800856,0.7820800998995011,0.17886631459712435,-0.5407698542612946,-0.2096794930114687,-0.1108720407329397,0.2309070600388498,-0.5180460929,-0.993021379,9.7040920543
1777262905.0557714,0.18461692278345587,0.8004725831161037,0.12658346868649917,-0.5560007742410924,0.2530509249235278,0.0160352125026979,1.5274685281141374,-0.5635097223,0.3936193176999999,9.4289174553
1777262905.1572032,0.18561890749506302,0.7986655362275309,0.1308585657320922,-0.5572746344463109,-0.1357647991895089,0.0529925594136778,0.061239240129351,-0.0981057266,0.3888336725,10.0881400816
1777262905.2588563,0.14097121770707952,0.8114713092371738,0.10448259146701411,-0.5574269621604495,-0.2808452932615375,-0.1290452815693307,1.3014483899808715,-0.0897308475,-0.6975077879,9.6969135865
1777262905.3616931,0.11934164434645791,0.820014374627852,0.08420600392012151,-0.5533925787650038,0.1814269757448105,-0.1718058482431918,0.4075998301876257,-0.2727817764,-0.3529413335,9.2745803976
1777262905.4672637,0.08191402168548598,0.8236012797326829,0.07116107044490616,-0.5566930277335363,-0.5122105022290359,0.0245873258374701,1.207222426988828,0.3684946804,-0.0059820565,11.0955183962
1777262905.5684538,0.056092160631390775,0.8276739560367031,0.05468385782251964,-0.5557150058329381,-0.0448985950075541,-0.0688750556068262,0.6485861666567428,-0.3888336725,0.0107677016999999,9.7663054419
1777262905.6699567,0.02632248854030022,0.8289657029006618,0.02701941617915648,-0.5580259323371943,0.3321579732701708,0.0145080494072028,0.4848742828196746,-0.9080761767,-0.7130611348,11.2008025906
1777262905.7710347,0.042857169724094646,0.8303855227670996,0.041341039000602944,-0.5539982536763104,-0.140957153714192,-0.0777326015606974,-0.300392980883874,0.0526420972,-0.346959277,9.128618219
1777262905.8726785,0.033690076272538845,0.8321235464845542,0.03642648820781611,-0.5523662671666005,-0.0503963821513362,-0.0479529211985442,0.2499965987325378,-0.7393821834000001,0.1064806057,10.2197453246
1777262905.9739642,0.04347271934981389,0.8344673247833627,0.03595502470124054,-0.5481620588292875,0.2887865413581117,-0.0945313956111428,-0.4227187448330265,0.6640082715,-0.4462614149,10.1024970172
1777262906.0758088,0.017691131303064003,0.8339845628484199,0.01504272621736418,-0.5512989109291774,0.1656971958612116,0.0525344104850293,0.4972443038931844,-0.6245266986,0.9655039191,10.241280728
1777262906.1767824,-0.026078253335332917,0.8368410849812711,-0.01453994581248295,-0.5466310576303888,0.0383317936969254,-0.1107193244233902,1.010981969217715,-0.7609175868,-0.7154539574000001,9.9924271776
1777262906.278447,-0.08359518761302227,0.8338030001902974,-0.044360640274999155,-0.5438901865965174,-0.3100141083854927,-0.0300851129812522,1.5544993149043995,-0.2907279459,0.1782652837,10.2616197201
1777262906.3803968,-0.13754177195429673,0.8254577741884085,-0.061851197924101896,-0.543944991074414,-0.7470881863161728,0.0148134820263018,1.76677498517821,-0.5156532703,0.035892339,10.5475620208
1777262906.4818275,-0.17071348600613498,0.8163028347011817,-0.07794559883383137,-0.5462884507079423,-0.3190243706489135,0.0855211333477221,1.0271698980299628,-0.6496513358999999,0.6795616184,9.6406822554
1777262906.5857756,-0.20471456086321493,0.8082104928721969,-0.10674008528398196,-0.5417511439539653,0.238848308135424,0.0222965811942275,0.6508769112999853,-0.3337987527,-0.2416750825999999,10.3692967371
1777262906.6868567,-0.24862425120343568,0.799863589560408,-0.1389535212618607,-0.5282955032346949,0.2544253717094734,-0.1282817000215832,0.8770497657428005,0.1232303638999999,0.1962114532,10.7653088774
1777262906.788732,-0.22089023254745227,0.8057043896701453,-0.11673448260025836,-0.5370484170011502,-0.2319760742056963,0.0671951762017816,-0.5061018498470556,-1.2299108164,-1.3411770673,9.6418786667
1777262906.889844,-0.31608467187666567,0.7768270812749015,-0.17501925552804692,-0.5157503525902298,-0.0867428638241181,-0.1230893454969001,2.3962716131412645,-0.4977071007999999,-0.4534398827,9.8476614103
1777262906.9912183,-0.38494318884482726,0.7416798500526038,-0.2164539685880163,-0.5048538609047385,-0.360715923155928,0.0870482964432171,2.065640802966589,-0.4713860521999999,0.0705882667,9.2075813648
1777262907.0924275,-0.5114732595357474,0.6594557989676727,-0.3054750648542234,-0.4584737056147219,0.021838432265579,0.040622538340168,3.566078544290464,-0.9678967417,-0.3038884702,9.8871429832
1777262907.1939092,-0.5533746697284107,0.6209270709755321,-0.32637727687228,-0.44911459626041345,-0.6714936130891684,0.0442877297693561,1.795485651373517,-1.1796615418,-0.8697910151,11.0105731939
1777262907.294997,-0.599959565536293,0.5797713109128703,-0.3611678020669324,-0.41649917828732347,0.3083342289804482,-0.0655152967967371,1.2612840005693522,0.131605243,0.0155533468999999,10.9340028707
1777262907.3969672,-0.6132418626286009,0.5714887576002268,-0.36776265111348455,-0.40259862183362594,0.239153740754523,-0.1232420618064496,0.1823432736021076,-0.4869393990999999,-0.7310073043,9.7351987481
1777262907.5000854,-0.6265894244721182,0.5635837386505204,-0.3666976860317652,-0.3940708942910537,-0.0965167076352864,-0.1730275787195878,0.3820962064928586,-0.1304088317,-0.3792623821,10.313065405999998
1777262907.6016655,-0.6565066912826614,0.5321566312635372,-0.39521191713307646,-0.36002197802264035,0.671340896779619,-0.0372627795300789,0.5813909904549611,0.1184447186999999,0.2859423007,10.3585290354
1777262907.703269,-0.6751051927729577,0.5150876609367971,-0.4015990922348574,-0.34298082943188757,0.0962112750161874,-0.1464549408579741,0.5068654313948032,-0.4462614149,-0.191425808,9.3906322937
1777262907.805094,-0.7199558512947334,0.44973723958987427,-0.43098720305900384,-0.3060229048812078,-0.081550509299435,0.0059559360724306,1.8854355576981745,1.1581261384,1.0157531937,10.3453685111
1777262907.9071603,-0.7070212834446041,0.46860353570462804,-0.42093388382753255,-0.32147518804308256,-0.1617265718129245,0.0146607657167523,-0.4260785036431157,-0.574277424,-1.3962119871,10.3405828659
1777262908.0082211,-0.7146494669324965,0.4633375536512117,-0.4186888369376424,-0.3151096771180052,-0.0149661983358513,-0.1337794871653653,0.1965458903902114,-0.5623133109999999,-0.5036891573,10.5786687146
1777262908.11156,-0.6912173189025589,0.5046409239667574,-0.4007119026556953,-0.32708733845440746,0.3405573702953935,-0.1333213382367168,-1.2907582483124065,1.1078768638,0.0693918554,10.205388389
1777262908.2136748,-0.6513864089286228,0.5615402409410578,-0.36139835332361336,-0.36022150724507346,-0.2858849314766711,-0.1792889474111175,-1.4265230475019153,0.2285145583,-0.6137589969,9.9038927414
1777262908.3153718,-0.6296483771275754,0.5881071887386038,-0.34197343165161864,-0.37513601237284977,-0.1204931682345585,-0.0705549350118707,-0.7189883853590641,0.191425808,0.8542376682,10.5248302061
1777262908.4170506,-0.6311401063677472,0.5867519320397797,-0.3468130628189544,-0.37027697179250907,0.1960877414615629,0.0082466807156732,-0.0685696229877272,0.1423729447,-0.0442672181,10.4111711326
1777262908.5186284,-0.6194694000673384,0.5985502471211347,-0.34015675833845543,-0.37721166976660986,0.0022907446432425,0.0140499004785543,-0.3793473129209675,-0.8159525066,-1.3603196481,9.7112705221
1777262908.6196938,-0.6221205044031666,0.5980638182292835,-0.3408809134999108,-0.3729422879449669,0.0901026226342072,-0.0558941692951184,-0.0070249502392771,0.2141576227,0.0729810893,9.5688975774
1777262908.7212489,-0.6562423214767035,0.5677517018184914,-0.35572214026182736,-0.3470818052168946,0.1266018206165386,-0.18157969205436,0.9468411192069238,-0.3840480273,-0.1854437515,10.7784694017
1777262908.822286,-0.6668016859698948,0.5584996603942253,-0.3477355613828865,-0.35004802567214927,-0.4946481266308429,-0.120340451925009,0.5874996428369413,-0.2021935097,-0.6652046827999999,10.444670649
1777262908.923834,-0.6876124905221581,0.5301690984667852,-0.3692601219914448,-0.3312955662481684,0.257326981590914,0.0832303887044795,0.6575964289201636,-1.0336993632,-0.0047856452,9.643075078
1777262909.0252285,-0.6727081341224839,0.5529279482639916,-0.34800408022050133,-0.34731485782197946,-0.3231477110067501,-0.1298088631170782,-0.4437935955508581,-0.7908278692999999,-0.3912264950999999,10.1383893562
1777262909.126275,-0.6654017190090029,0.5670645991349345,-0.3314453296503601,-0.3547143727011417,-0.2142609822979538,-0.1663080610994096,-0.2513710455184833,-0.3960121403,-0.6496513358999999,10.6384892796
1777262909.2281387,-0.6416062654090758,0.5934516593064938,-0.316167019623706,-0.36904599165476787,-0.041844268816564,0.0064140850010791,-0.7742716894159843,-0.1974078645,0.2524427843,10.5655081903
1777262909.329321,-0.6249226431292134,0.6108493257676605,-0.3007281920590771,-0.3819651107293326,-0.2121229539642608,-0.022449297503777,-0.4309654255486998,-0.2679961312,0.4833501651999999,9.3379901965
1777262909.4373302,-0.6378032723347292,0.5963486925315147,-0.31204173640017485,-0.37443981820771666,0.0679587577495292,0.0366519142918809,0.3781255824445715,-0.2021935097,-0.2428714938999999,10.1120683076
1777262909.5389762,-0.6646541238613094,0.5627435258288274,-0.32562247249533127,-0.36813669360432205,-0.3452915758914281,0.0470366233412471,1.1679743354346053,-1.0325029519,0.0981057266,9.3044906801
1777262909.6403592,-0.6574418988033013,0.5783951411101287,-0.31299862685416036,-0.36777856112817925,0.0934623814442963,-0.1863138976503947,-0.4534147230524769,0.131605243,-0.3254238735999999,9.3164547931
1777262909.7420726,-0.6530097553293956,0.586030067814071,-0.30575067442141507,-0.36968032697633224,-0.0265726378616136,-0.0784961831084449,-0.1910481032464293,0.5647061336,-0.3314059300999999,10.2640125427
1777262909.843402,-0.6693595880281353,0.5664099481653508,-0.3153155786510164,-0.36292368122527424,-0.0810923603707865,0.0114537232162127,0.620180933080535,-0.2500499617,0.3050848815,9.5976114486
1777262909.9450097,-0.6943989077645272,0.5334011151382566,-0.3321036694736853,-0.35071435668761747,-0.0897971900151082,0.0378736447682769,0.9850201965942996,0.7525427077,0.5359922624,9.8297152408
1777262910.0469382,-0.7035572587400339,0.5189827467689595,-0.32593250553862185,-0.3597667217290546,-0.6238461245097231,-0.0589484954861084,0.7110471372624899,-1.6701901748,-0.6041877065,10.2975120591
1777262910.147909,-0.775143111265586,0.41096337602515254,-0.3795147345685532,-0.2936508587913155,0.4744895737703084,-0.041538836197465,2.6681066441393817,-0.2189432679,-0.1256231865,11.1840528324
1777262910.2490602,-0.7980713498001696,0.37347225797284966,-0.3796282789676841,-0.2819272299030913,-0.3242167251735967,-0.2296853295624537,1.1168143717355217,-1.0265208954,-0.6963113766000001,9.1142612834
1777262910.350237,-0.8460217784959481,0.25008537237310036,-0.42038469586651916,-0.21208763357813903,0.3118467041000868,0.0148134820263018,2.8093692304726727,-0.6580262149999999,-0.5611168997,10.5427763756
1777262910.4512534,-0.8644904574777036,0.186491409473057,-0.42727517831104506,-0.18791786802219687,-0.2423607832550626,-0.1453859266911276,1.5850425768143002,-0.1411765334,-0.8303094421999999,9.1441715659
1777262910.552252,-0.881710284918307,0.08045654037331997,-0.44568598699770046,-0.13220332663862763,0.08307767239493,-0.0274889357189106,2.3576343868252403,-0.3661018578,-0.4414757697,10.3214402851
1777262910.6540415,-0.8856071131613347,-0.009821508106917926,-0.45504957817057,-0.0923767313956217,-0.1725694297909393,-0.0502436658417867,2.0854939232080243,-1.902293967,0.5036891573,9.7782695549
1777262910.757324,-0.8864061336003825,-0.01857790204869217,-0.4551127867114018,-0.08253108046591921,0.1611157065747265,-0.0067195176201781,0.1073595656133011,0.5419743189,0.4055834306999999,9.1082792269
1777262910.858362,-0.8870943709628127,-0.045298898954815384,-0.4547135239022477,-0.06517052968921674,0.1282817000215832,-0.0484110701271927,0.5215261971115556,0.2691925425,0.1483550012,8.2731841395
1777262910.9593167,-0.8874976703743849,-0.06077167184973106,-0.4520202006887079,-0.06582117554380523,-0.2151772801552509,-0.1069014166846526,0.4338670354301404,-0.4091726645999999,-0.8219345630999999,10.0797652025
1777262911.0604289,-0.8869385456569029,-0.08215129454391928,-0.45242877086705624,-0.04358197247143761,0.3341432852943143,0.0172569429790939,0.3098613920759432,0.4797609312999999,-0.0873380249,10.0199446375
1777262911.1615105,-0.8874206199223774,-0.10025852488455268,-0.44846084346985327,-0.03627317740238589,-0.0079412480965742,-0.1088867287087962,0.3853032489933982,-0.1782652837,-0.2739781877,9.3714897129
1777262911.2625678,-0.8808417808023361,-0.1579521059328751,-0.446249639288055,0.0054907977216554354,0.3842342348265516,-0.0126754536926088,1.0937542089935464,-0.5599204884,-0.4283152454,11.2773729138
1777262911.3637598,-0.8799739558385167,-0.16363606182516666,-0.44592088507355987,0.004862157080502888,-0.0930042325156478,-0.0239764605992721,0.1693623872903997,-0.1890329854,0.0837487909999999,10.2221381472
1777262911.466339,-0.8752765999467003,-0.19137664494464934,-0.44342477866609076,0.025304525690125423,0.1950187272947164,-0.0073303828583761,0.5157229773486744,-0.2883351233,0.3553341561,8.8127656358
1777262911.5673826,-0.8879769354138651,-0.13716659926186994,-0.4388012885549902,-0.011649694520207823,-0.2112066561069638,-0.1557706357404939,-1.1453723216212788,-0.4869393990999999,0.1974078645,9.906285564
1777262911.671032,-0.8903105877005911,-0.12017937900901879,-0.43866931872684417,-0.02175323187392951,-0.0478002048889947,-0.003359758810089,-0.3457497248200766,0.3182454058,-0.2213360905,10.097711372
1777262911.772119,-0.8825236271918815,-0.1577558572002723,-0.4429738831723973,0.006267040310991415,0.2154827127743499,0.1259909553783406,0.757778327984638,-0.5120640364,0.4055834306999999,9.7842516114
1777262911.873485,-0.8776204335658655,-0.18267112146445236,-0.4430777096255195,0.00978668501513795,-0.2483167193274932,-0.040622538340168,0.6742425066610594,-0.0370887503,-1.8927226766,10.6492569813
1777262911.9749234,-0.8755713016310005,-0.21040821403569532,-0.43439072113861105,0.02019853002528317,0.0113010069066632,-0.1889100749127362,0.5713117140246938,0.7800601676,0.4713860521999999,10.803594039
1777262912.076364,-0.8639493286052142,-0.2640718732880306,-0.42578295089606255,0.050660458614100706,0.1864666139599441,-0.1029307926363655,1.096961251494086,-1.0121639598,-0.9678967417,10.0725867347
1777262912.177846,-0.8685598656840835,-0.256286621834349,-0.4216715248726943,0.045978824507820995,0.040927970959267,-0.0969748565639349,-0.222813095632726,-0.3014956476,-0.9738787982,10.7102739576
1777262912.2793827,-0.8760450525629453,-0.2352156328469402,-0.41923747870914335,0.03819173195863687,0.1039998068032121,-0.0532979920327768,-0.539241289019298,0.2440679052,0.9631110965,9.5617191096
1777262912.380832,-0.8761593924350162,-0.2396935906919239,-0.41705718326938385,0.030903195830258537,-0.2107485071783152,-0.1023199273981675,0.1760819049105779,0.3457628657,0.3756731482,9.8500542329
1777262912.4818332,-0.8753599916318079,-0.23732560720832924,-0.42014763615785833,0.029956719522052075,-0.0340557370295393,0.061850105367549,-0.02153299964648,-0.2440679052,0.5240281494,10.0821580251
1777262912.5835214,-0.8764167818182009,-0.22687960707480764,-0.4241588729948158,0.02255036365065148,-0.1069014166846526,0.0586430628670094,-0.1679879405044542,0.2644068973,0.6317051664,10.0103733471
1777262912.685182,-0.8727216679898102,-0.24390358433802928,-0.4223052555561404,0.022939112838301967,-0.1771509190774244,-0.080634211442138,0.4471533543609473,-0.107677017,0.1519442351,9.8153583052
1777262912.7870357,-0.8725399233918057,-0.2546035662522759,-0.4157490625867173,0.03168316741284877,0.1721112808622908,-0.0978911544212319,0.1314887425221228,0.3780659708,0.4283152454,10.360921858
1777262912.8885062,-0.8691619475562663,-0.26146176194768844,-0.41897179289418257,0.025649419456251585,-0.2745839245700079,0.0010690141668465,0.2871066619530672,-0.3361915753,0.1136590735,10.0199446375
1777262912.990166,-0.8739168732391461,-0.2292364917764167,-0.4286250517874113,-0.0007031971231215017,-0.3912591850658288,0.1050688209700586,-0.5062545661566052,-0.2715853651,0.7190431913,11.1445712595
1777262913.091567,-0.878024917688094,-0.22704503443142274,-0.42125408646601387,0.008233522607843158,0.3489567673206162,-0.079412480965742,-0.241291769088216,-0.5647061336,0.7166503687,9.798608547
1777262913.1932454,-0.8705504411118319,-0.25555921970055995,-0.41975439748470145,0.02525194048565528,0.0940732466824943,0.0038179077387375,0.5972734866481094,0.0945164927,1.5481562222,9.1872423727
1777262913.294702,-0.8768644742863697,-0.2429300930561019,-0.41440892829432696,0.018944755796515098,0.0697913534641232,-0.1139263669239298,-0.3497203488683638,0.179461695,-0.5395814963,10.4626168185
1777262913.3959196,-0.8733971963176692,-0.24878544165848632,-0.4185898863405797,0.008102378453730755,-0.3903428872085318,-0.0108428579780147,0.3149010302910769,-0.0897308475,0.9379864592,10.4697952863
1777262913.4974372,-0.8680604386742155,-0.27003499318247515,-0.41570208074459236,0.027275581208941455,0.2512183292089338,0.0177150919077424,0.3656028450615122,0.2751745989999999,-0.0227318147,9.643075078
1777262913.5985763,-0.877379740929917,-0.22703906044726008,-0.42262261688978153,0.006941104394133812,-0.0763581547747519,0.1223257639491525,-0.9025533894375676,-0.5216353268,-0.4989035121,9.9840522985
1777262913.700223,-0.8933984452393728,-0.16289869115179018,-0.41798712938711335,-0.024289794804104495,0.0284052335762077,-0.0852157007286231,-1.4602733519123556,0.0059820565,0.2584248408,10.384850084
1777262913.8012493,-0.8624653008835576,-0.28591872036999527,-0.41681698279156376,0.02583975561718979,-0.1924225500323748,-0.0759000058461034,2.8399124923825734,-0.0346959277,-0.2560320182,10.4422778264
1777262913.9028225,-0.8058549264853276,-0.41859517389430057,-0.40942279257016106,0.08802780683272038,-0.1067487003751031,-0.002748893571891,3.1771101038678777,-1.0971091621,0.071784678,10.1467642353
1777262914.0039124,-0.7546968056613526,-0.5107995285059482,-0.38568727616110965,0.1440898962803277,0.3866776957793437,-0.0610865238198015,2.112371993688737,-0.3780659708,-0.5072783912000001,9.8751788702
1777262914.1052966,-0.7234451515927,-0.5514055366702966,-0.38353002960480426,0.15963634660595144,-0.2386955918258745,0.023365595361074,1.2186761502050407,-0.5252245607,0.9726823869,9.1214397512
1777262914.207686,-0.6842023758437669,-0.5997830526327675,-0.37210627136486085,0.1834783951183469,-0.0416915525070145,-0.0241291769088216,1.3519974884417576,0.2859423007,0.1866401628,10.2759766557
1777262914.313006,-0.6954222233094307,-0.5901773670506122,-0.3716449038093877,0.17308573661941784,-0.00305432619099,-0.1114829059711378,-0.3222314131494531,-0.7345965382,-0.5922235935,10.217352502
1777262914.4145596,-0.6444238991115521,-0.6474052913749304,-0.3503101894166528,0.20704346921473915,0.1724167134813898,-0.023060162741975,1.5757268819317805,0.3062812928,0.3888336725,9.9816594759
1777262914.5156407,-0.6397527922858781,-0.6563900063945811,-0.3401678119489984,0.21012944577468165,0.1656971958612116,-0.12003501930591,0.1188132888295139,-1.0671988796,0.8566304908000001,10.3166546399
1777262914.6173306,-0.6068741728412692,-0.6864307212249636,-0.3345960298557765,0.2203681013703066,-0.1957823088424639,-0.0342084533390888,1.033278550411943,-0.7812565789,-0.0753739119,10.1551391144
1777262914.7188227,-0.5365407388564831,-0.7433079569873612,-0.302614880032789,0.260847754464851,0.303141874455765,0.0540615735805243,1.8257234806643183,-0.2177468566,0.8877371846000001,10.1168539528
1777262914.820577,-0.4913952100413766,-0.7789851582362928,-0.26159966332128315,0.2885801222297897,0.6737843577324109,-0.0810923603707865,0.934471098133414,0.6077769404,0.6831508522999999,9.3272224948
1777262914.9215531,-0.4967045972883409,-0.7768365491039666,-0.25345321195557485,0.2925251926899118,0.2953533426687404,-0.0059559360724306,-0.2444988115887556,-0.5084748025,0.1579262916,10.3453685111
1777262915.022847,-0.5059536995877151,-0.7719482155635948,-0.24886225876098575,0.29355473514502534,0.2275473012287607,-0.0171042266695444,-0.3187189380298145,-0.1950150419,-0.5180460929,9.6227360859
1777262915.1238875,-0.5150075764475014,-0.7676972718451374,-0.25280982035125954,0.28547379868767014,-0.0862847148954696,-0.0879645943005142,-0.1831068551498551,-0.6125625856,-0.4486542375,9.7998049583
1777262915.226203,-0.507221154315031,-0.7725524312919898,-0.2532274898021069,0.2859462885380508,-0.0974330054925834,-0.0001527163095495,0.2338086699202903,0.4043870194,-0.0466600407,9.2542414055
1777262915.3275297,-0.4953779566052949,-0.7786271409793781,-0.2611647010968143,0.2830785303424724,-0.3521638098211558,0.0120645884544108,0.4285219645959077,-0.7980063370999999,0.5216353268,10.229316614999998
