timestamp,accel_x,accel_y,accel_z,gyro_x,gyro_y,gyro_z,roll,pitch,yaw
1777262855.379919,-0.16869399329999998,0.0251246373,10.1013006059,0.004428772976935611,-0.040011673101970006,0.0032070425005395805,0.0,0.0,0.0
1777262855.4813902,-0.6807580296999999,0.0873380249,10.1491570579,0.016493361431346415,-0.10048733168357353,-0.29413161219234435,0.0016736009403568424,-0.010196568692174095,-0.029845883436363685
1777262855.5823808,0.21894326790000002,1.1114660977,9.1896351953,0.1149953810907764,-0.047952921198544204,-1.1081095420912,0.01328704586455321,-0.015039359802662355,-0.14175445763286945
1777262855.6833751,-0.11844471869999999,0.0873380249,10.961520330599999,0.20662516682047868,-0.13133602621257331,-1.3455834034406782,0.034155019976663724,-0.028303556207994983,-0.2776507768507599
1777262855.7843218,-0.9140582332,0.0251246373,9.2973122123,-0.39400807863771986,0.09392053037294486,-0.9601274381377306,-0.005618781470081491,-0.018822591909642927,-0.37457243952350683
1777262855.8852081,-0.0382851616,-0.5312066172,9.8333044747,-0.7318165553612224,-0.12018773561545952,-1.8687894799572784,-0.0794490788848589,-0.030947893258856163,-0.5631077795620358
1777262855.9861355,0.227318147,-0.47856452,9.475577496,0.5314527572322734,-0.02306016274197508,-1.1079568257816503,-0.025810958903196637,-0.03327529444196852,-0.674930929121507
1777262856.0870433,-1.0121639598,-0.909272588,9.5904329808,-0.6704245989223219,-0.00717766654882668,-0.5624541680708226,-0.0934620319772241,-0.03399957700107542,-0.7316869432745009
1777262856.187994,-0.3014956476,-0.2584248408,9.0664048314,0.48517971543877364,0.04245513405476207,0.40790526280672473,-0.04448279138053519,-0.02971370073860154,-0.690508614148358
1777262856.2889626,-0.2596212521,-0.5455635528,9.4815595525,-0.06261368691529658,-0.05070181477043527,-1.4992160108474792,-0.05080480764659976,-0.034832991958926994,-0.8418823548409333
1777262856.3898978,-0.2907279459,-0.2656033086,9.9074819753,-0.1551597705022959,-0.11911872144861299,-0.4256203547144672,-0.06646589332886277,-0.04685626640003442,-0.8848424392862748
1777262856.4907799,-0.7489534738,-0.41754754369999997,10.332207986799999,0.0759000058461034,-0.11988230299636052,0.318260789101166,-0.05880894488791482,-0.05895023928966046,-0.8527356373729237
1777262856.5916657,-0.0191425808,0.5407779076,9.675378183100001,0.34727688791557176,-0.04108068726881653,0.6867652440441188,-0.02377361458903269,-0.06309470008579031,-0.7834507295655038
1777262856.6926599,-0.9702895642999999,-1.9848463467,9.5210411254,-0.4876231763915657,-0.02199114857512855,-0.759000058461034,-0.07302068335645327,-0.06531567656637552,-0.8601052650412571
1777262856.793807,-0.897308475,-0.5132604477,9.6490571345,-0.17058411776679577,-0.1435533309765336,-0.18585574872174615,-0.09027478494032058,-0.07983569043283503,-0.8789040489513434
1777262856.8950543,-0.31704899449999996,0.5647061336,9.5748796339,-0.15363260740680088,-0.13530665026086042,0.22876903170515675,-0.10582967326662857,-0.09353512488324146,-0.8557417997338391
1777262856.9963837,0.1292124204,-0.4845465765,10.1539427031,-0.2116648050356123,-0.06979135346412325,0.7185302364304156,-0.1272775254320809,-0.10060703573433218,-0.78293361471331
1777262857.0975845,-0.2620140747,-0.6843472636,11.2354985183,-0.07299839596466283,0.027183503099811684,-0.024129176908821607,-0.13466502289052276,-0.09785604295692077,-0.7853755071786527
1777262857.1987824,-0.933200814,-0.17706887240000002,9.5042913672,-0.20876319515417174,0.01313360262125733,0.8681922197889292,-0.15579143194412592,-0.09652694919056387,-0.6975162273909906
1777262857.3000593,-1.2406785181,-0.8338986760999999,10.5152589157,0.07849618310844496,-0.09040805525330627,3.337767661513956,-0.14784158385540752,-0.10568319446006054,-0.35947755068470816
1777262857.4013455,-0.39960137419999997,-0.2919243572,9.607182739,-0.04459316238845512,-0.07849618310844496,1.2423471781852138,-0.15235825460976282,-0.11363377243176816,-0.23364495963443296
1777262857.5026374,-0.31704899449999996,0.6460621019999999,9.6083791503,0.5002986300841745,0.06337726846304409,1.889253465436912,-0.10168205834629898,-0.10721416881475426,-0.04227889614990571
1777262857.604594,-0.11844471869999999,-0.2596212521,10.9375921046,0.16233743705112258,0.16294830228932058,1.1568260448374916,-0.08513068425223452,-0.09060051297433397,0.0756671610114661
1777262857.7068214,0.5228317381,0.9415756931,10.0295159279,-0.08659014751456867,-0.03955352417332149,1.172403108411541,-0.09398257417730055,-0.0946439688660308,0.19551894047307444
1777262857.808235,-0.2261217357,-0.5527420206,9.865607579799999,-0.0635299847725936,0.02199114857512855,1.872912820315115,-0.1004253715503297,-0.09241376977536686,0.3854575630279529
1777262857.9096088,0.4558327053,1.2598210989,10.3477613337,-0.30863966159954725,0.04352414822160859,0.6606507551111536,-0.13171338110674152,-0.08800155665138004,0.4524303138152055
1777262858.0132105,-0.7310073043,-0.3206382284,10.2951192365,-0.17852536586336998,0.006108652381980153,2.52394244792465,-0.15020891145126858,-0.0873686899158958,0.7139150272489083
1777262858.1147277,0.8243273857,-0.107677017,10.339386454600001,0.2909245696918048,0.10873401239924674,1.3548990983231979,-0.12067506358822566,-0.07633031738125719,0.8514605906299669
1777262858.2169578,-1.0145567824000001,0.20937197749999997,10.328618752899999,0.0516181126277323,-0.14217888419058808,-1.0389290538652745,-0.11539814021667949,-0.0908652749519953,0.7452507986281073
1777262858.3291373,-0.48574298779999997,-1.1521440819,10.695917022000001,0.4130976173314079,0.014813482026301871,-0.739910519767346,-0.06905704872243221,-0.08920350568214613,0.6622479933454352
1777262858.4306626,-0.0646062102,0.5347958510999999,9.2458665264,-0.40759983018762574,-0.08582656596682116,0.7389942219100492,-0.11043874649377551,-0.09791707411507791,0.7372746083756077
1777262858.5331087,0.4821537539,-1.5541382787000002,10.662417505599999,-0.22586742182371616,-0.11667526049582093,-0.9129380984869339,-0.13357797829085855,-0.10986999709883143,0.6437476795838819
1777262858.6346617,0.4019941968,0.4761716974,10.0749795573,0.19058995431778078,-0.12904528156933073,-0.6853907972581733,-0.11422300366290292,-0.12297492783650972,0.5741442131333492
1777262858.7362583,-0.3684946804,0.3768695595,10.2699945992,0.12980886311707826,0.15210544431130582,-0.004734205596034618,-0.10103486531778268,-0.10752153278740412,0.5736632339701742
1777262858.837443,-0.574277424,-0.6699903279999999,8.5471623272,-0.27336219409361184,-0.09529497715889039,-0.8332201849020929,-0.12869497654799605,-0.11716394027771314,0.4893539787343953
1777262858.9391122,-0.3768695595,-0.0047856452,10.668399562100001,-0.2745839245700079,-0.09666942394483594,-0.02199114857512855,-0.1566116696485231,-0.12699223100776522,0.48711815904225075
1777262859.0403347,-0.4462614149,-0.1746760498,9.8727860476,-0.06093380751025203,0.04856378643674222,0.35262195874980434,-0.16277954289970795,-0.12207648240155775,0.5228114405885811
1777262859.1418478,0.7740781111,0.2620140747,10.094122138100001,-0.027947084647559205,-0.22098049991813207,-1.1217012936411057,-0.16561653942165386,-0.14450890845213551,0.4089440118798778
1777262859.242912,-0.33738798659999997,1.4584253747,10.565508190300001,0.5569563809270405,0.1912008195559788,0.7822129375125587,-0.10932818546908225,-0.12518534959591954,0.4879977406830233
1777262859.3459163,-1.2622139215000001,-0.9523433948,10.693524199399999,0.9437867930159337,0.060781091200702526,0.6950119247597919,-0.012114165700017623,-0.1189246408794005,0.5595868999013103
1777262859.447374,-0.2907279459,-1.0995019847,9.438488745699999,0.15775594776463747,0.05070181477043527,0.14782938764391973,0.0038914110992564997,-0.11378054456056312,0.5745853494092458
1777262859.548423,-0.4450650036,-0.39960137419999997,9.774680321,-0.22510384027596866,-0.061850105367549056,1.7217236738611061,-0.018855094786860434,-0.12003043254148399,0.7485637126114726
1777262859.650118,-0.9008977089,0.13758729949999998,9.8500542329,0.09682214025438543,-0.2550362369476714,1.3487904459412179,-0.00900876135368402,-0.1459663581462231,0.8857290389234822
1777262859.7511315,-0.19381863059999999,0.5994020613,9.8907322171,0.554360203664699,-0.04550946024575214,1.670716426471572,0.04698905984593893,-0.1505634244595806,1.0544938223735856
1777262859.8525279,-0.16869399329999998,0.3732803256,11.3120688415,-0.10461067204141013,0.05436700619962337,1.498605145609281,0.03638192243280074,-0.14505080997917594,1.2064468726438413
1777262859.9535668,0.0382851616,-0.0263210486,10.7102739576,0.4757113042467045,-0.003817907738737596,-0.7119634351197869,0.08444728493492323,-0.14543656730262797,1.1345108469665075
1777262860.0582855,0.2344966148,0.5766702466,10.0187482262,0.10537425358915764,-0.028557949885757217,0.6382014576073765,0.09548193821945793,-0.14842711826524824,1.2013424644680588
1777262860.159401,-0.8913264185,-0.6472585133,9.9828558872,0.08720101275276669,-0.048411070127192715,1.1934779591293723,0.10429930918674192,-0.15332222614025529,1.3220215434686269
1777262860.2608812,-0.5036891573,-0.0526420972,9.5389872949,-0.047952921198544204,-0.038637226316024474,-0.3190243706489135,0.09943303496674567,-0.15724314135572998,1.2896468719859129
1777262860.3635414,-0.0251246373,0.2739781877,10.1024970172,0.4286746809054573,-0.09621127501618743,0.20112737967669655,0.14344085450050362,-0.16712020808400482,1.310294644813116
1777262860.4649928,-0.6508477471999999,-0.7238288365000001,9.8871429832,-0.2351831167062359,0.023212879051524585,-1.0386236212461755,0.11958119877344996,-0.16476522907717875,1.2049248275405888
1777262860.567358,0.2201396792,0.09690931529999999,9.8859465719,0.32116239898260657,0.020463985479633514,0.06979135346412325,0.15245706975599704,-0.16267042797795797,1.212069037259573
1777262860.6702397,-0.8183453291999999,-0.08853443620000001,10.1790673404,0.1111774733520388,0.03390302071998985,0.7322747042898708,0.16389519388063173,-0.1591824285883029,1.2874066817343304
1777262860.771766,0.6472585133,0.981057266,9.8847501606,-0.279165413856493,-0.02626720524251466,-0.4043927876870862,0.13555257338547017,-0.16184923970710366,1.2463501942774442
1777262860.873149,-0.1423729447,0.299102825,9.1369930981,0.18936822384138474,-0.0879645943005142,-0.7211264136927572,0.1547512864955108,-0.1707673516033806,1.1732402561277573
1777262860.9761484,0.4139583098,0.8877371846000001,10.912467467299999,0.19471329467561738,-0.05467243881872237,-0.7319692716707719,0.17480664851650596,-0.176398582664962,1.0978478246245182
1777262861.077307,-0.1052841944,-0.1280160091,9.5066841898,0.14553864300067715,-0.08292495608538057,1.4764612807246031,0.18952913664296445,-0.18478715669714138,1.2472046086818116
1777262861.1872141,-0.7668996433,0.2787638329,9.4600241491,0.1828014225307561,0.079717913584841,-1.5447254710932312,0.20962032005835782,-0.1760255879896766,1.0774282342067039
1777262861.2908854,-0.0586241537,0.2081755662,9.403792818,0.15836681300283548,-0.09773843811168245,2.020284059030386,0.2260384153922225,-0.18615826013400966,1.2868737338901135
1777262861.3957915,0.5718846014,0.2297109696,9.3750789468,0.4161519435223979,0.017256942979093935,1.1650727255531648,0.2696952853676471,-0.18434790185612968,1.4090969489515865
1777262861.4972284,-1.6893327556000002,0.0263210486,9.7974121357,-0.2539672227808249,0.0022907446432425577,1.1446087400735312,0.24393364941978507,-0.18411553592755606,1.525202457928872
1777262861.600618,0.1136590735,-0.454636294,9.9314102013,-0.2712241657599188,-0.06032294227205401,-0.5018257931796696,0.21589191810767905,-0.19035229486239946,1.4733189392962256
1777262861.7047465,0.3397808092,1.148554848,10.365707503200001,-0.06688974358268268,0.023976460599272102,-0.5535966221169514,0.20892678280978316,-0.1878556596072176,1.4156736985316762
1777262861.8087926,0.7345965382,0.48335016519999996,10.695917022000001,0.3384193419617005,0.03115412714809878,1.1210904284029077,0.2441379976505358,-0.18461419398108334,1.5323187924603607
1777262861.9102945,0.6352944003,-0.0945164927,10.420742422999998,-0.1832595714594046,-0.18891007491273626,-1.5428928753786373,0.22553679531579507,-0.2037889333878119,1.3757121698037895
1777262862.0118985,-0.1387837108,-0.08374879099999999,10.699506255900001,-0.03940080786377199,-0.019547687622336492,2.4552201086273735,0.22153351623120573,-0.20577505634450738,1.6251723164818617
1777262862.1168447,-0.6819544409999999,0.0047856452,10.636096456999999,0.3506366467256608,-0.018784106074588972,2.0002782224794013,0.25833147761147635,-0.20774637570416474,1.835093787805374
1777262862.218439,-1.4129617452999998,-0.9032905315,8.9288175319,0.061086523819801536,-0.04260785036431157,1.5323554500197214,0.2645375292846613,-0.21207509674621122,1.9907725940272176
1777262862.31954,-0.7944171031999999,-0.0502492746,10.600204118,-0.37980546184961606,0.09010262263420726,1.21882886651459,0.2261388470512309,-0.20296563855653535,2.1139973157421386
1777262862.4209566,-0.7094719009,0.5515456093,10.022337460100001,-0.26419921552064163,-0.019394971312786988,0.6823364710671831,0.19934466410587304,-0.20493261036813099,2.183197552389456
1777262862.5219557,-0.5335994398,-0.5694917788,10.417153189099999,0.45814892864851153,0.0678060414399797,0.6954700736884404,0.24561730130694648,-0.19808426006237212,2.253439415660685
1777262862.623377,-0.801595571,-0.9774680320999999,10.6384892796,-0.2464841236128992,0.04657847441259867,0.6281221811771094,0.22061854720806895,-0.1933602080176648,2.317144419135706
1777262862.724475,-0.8374879099999999,0.5443671415,11.2797657364,-0.5187773035396646,0.0439822971502571,0.9532552042080029,0.16817129161895533,-0.18891369356088977,2.413516444271781
1777262862.8261874,-1.7252250946,-0.10169496049999999,10.4315101247,0.3494149162492648,0.058490346557459966,1.3150401415307775,0.20371114415845834,-0.1829644962170831,2.547272419017262
1777262862.9271731,-0.020338992099999998,0.4247260115,10.462616818499999,0.3677408733952052,-0.022602013813326566,1.7214182412420072,0.24084773774815524,-0.18524697788289504,2.7211111577809928
1777262863.028647,0.5994020613,1.2598210989,9.798608546999999,-0.4002694473292496,-0.006566801310628665,-1.0445795573186063,0.2002308725860934,-0.18591333622015893,2.615113692039481
1777262863.1304655,1.7132609816000002,0.9786644433999999,10.938788515899999,0.20631973420137967,-0.15042556490626127,-1.3132075458161834,0.22123805114267223,-0.20122945085985555,2.4814047887026773
1777262863.23326,0.6795616184,-0.1507478238,9.7842516114,-0.14141530264284052,0.05696318346196493,0.20036379812894903,0.2067013487124804,-0.19537395409261846,2.5020010668759083
1777262863.3346694,0.179461695,-0.4402793584,9.9972128228,-0.2947424774305424,-0.0516181126277323,1.5210544431130584,0.176811680525515,-0.20060851774401448,2.6562503389703
1777262863.4359,-0.2691925425,-0.23928226,10.2101740342,0.6982189672603316,0.06734789251133119,-0.9213374955121566,0.24749282041117868,-0.19379084873929495,2.5629827718377083
1777262863.5397034,0.2787638329,-0.2021935097,9.4803631412,-0.619264635223238,0.09422596299204386,-1.571298108954845,0.18321104811298594,-0.18400987376815192,2.3998766916463135
1777262863.640765,0.2333002035,0.6520441585,9.290133744499999,0.013286318930806833,-0.10002918275492502,-1.2968669006943867,0.18455378453060067,-0.194118981280079,2.2688132702855732
1777262863.7422192,0.2548356069,-1.9465611851,9.2638126959,0.4775438999612985,0.0555887366760194,0.41706824137969495,0.23300264654692837,-0.1884792672493968,2.311126619235554
1777262863.843303,0.7453642399,-0.7190431913,10.034301573099999,-0.1386664090709495,-0.047036623341247176,-0.1111774733520388,0.21898572515728545,-0.19323390578244748,2.299888382702889
1777262863.9447184,-0.7501498851,-1.0731809361,10.561918956400001,0.0641408500107916,-0.09407324668249435,-0.9593638565899831,0.22549059484401784,-0.2027743813229883,2.202594117531335
1777262864.0487509,-0.6317051664,0.0,10.3788680275,-0.7570147464368905,-0.011606439525762293,0.836274511093083,0.14673644576010342,-0.2039818284342204,2.289593859388005
1777262864.1504147,-0.6592226263,0.0574277424,9.6801638283,-0.32284227838765106,-0.019242255003237483,0.059253928105207486,0.1139150639325106,-0.20593806973520276,2.2956178405370617
1777262864.2513795,-0.9140582332,0.2667997199,9.5042913672,-0.15821409669328595,-0.06230825429619756,0.8136724972797564,0.09794101173567826,-0.21222900921040314,2.3777701089779137
1777262864.3528757,-0.6293123438,-1.0923235169,9.6765745944,0.19868391872390448,-0.11560624632897441,0.16462818169436513,0.1181066783884241,-0.22396260617898778,2.394479247065277
1777262864.454256,0.7441678286,1.2586246876,9.785448022699999,0.15714508252643944,0.006108652381980153,-0.8242099226386722,0.13403810157374701,-0.22334330887343587,2.310920558113686
1777262864.5553417,-0.5802594805,-0.4331008906,10.5140625044,-0.02306016274197508,-0.017256942979093935,0.3287982144600818,0.13170704973773475,-0.22508773839310067,2.3441573435635825
1777262864.6572542,0.0921236701,0.8410771438999999,10.265208954,-0.14966198335851374,-0.0919352183488013,-0.4347833332874374,0.11645462308707628,-0.23445708619279088,2.2998474877733535
1777262864.75842,0.23928226,0.045463629400000004,9.7292166916,-0.08292495608538057,-0.2226603793231766,-0.5566509483079415,0.10806545592939085,-0.25698269524602363,2.2435334651402714
1777262864.8597667,-0.7262216591,-1.5720844482,9.7938229018,-0.05604688560466791,0.027641652028460195,-0.17333301133868687,0.10238528728020695,-0.2541813041683607,2.2259667310344846
1777262864.9607394,-0.5300102059,-0.1160518961,9.6574320136,0.18524488348354815,-0.1795943800302165,-0.14431691252428114,0.1210899545156094,-0.2723154250824854,2.2113946695856344
1777262865.0651934,0.3984049629,-0.227318147,11.3551396483,0.3874412773270912,-0.006719517620178169,-0.6230825429619757,0.1615597613994992,-0.2730173058483077,2.1463111803912036
1777262865.1661708,0.2021935097,0.24287149389999999,10.2149596794,-0.24633140730334968,-0.05253441048502932,1.991115243906431,0.13668585122627674,-0.2783220951226961,2.3473688622501463
1777262865.2708473,-0.010767701699999998,0.3014956476,10.4315101247,-0.05742133239061344,-0.012064588454410803,2.6789495021173964,0.1306751879840709,-0.27958497383581915,2.6277918797894406
1777262865.3740523,-0.19381863059999999,1.1306086785,9.6454679006,0.2223549467040776,0.030848694528999777,1.945911216279778,0.15362332260774963,-0.27640123537841316,2.828619579909574
1777262865.4751298,-1.0815558152,-0.1854437515,9.2135634213,-0.22357667718047364,0.04260785036431157,1.4624113802460488,0.1310247383633406,-0.2720945379711795,2.976436548983659
1777262865.577251,-0.6628118601999999,-0.3218346397,10.4674024637,0.007788531787024695,-0.0641408500107916,1.474017819771811,0.1318201119115481,-0.2786446730740648,3.1269648918718715
1777262865.6787858,0.3122633493,0.0610169763,8.5986080131,0.13637566442770693,-0.11804970728176646,0.6776022654711484,0.1456669936488992,-0.2906308316216263,3.1957651318143427
1777262865.782549,-0.35772697870000003,-0.37567314820000003,9.0352981376,0.38515053268384863,-0.1589776782410335,1.302822836766817,0.18563140822911764,-0.30712684890077274,3.3309500726485393
1777262865.8841252,-0.131605243,0.0047856452,11.8097759423,-0.46838092138832826,-0.02428189321837111,0.6433938121320597,0.13805499399921772,-0.30959331445752336,3.396303653721434
1777262865.9853249,-0.7310073043,-1.016949605,11.9078816689,0.1681406568140037,-0.20509800372498366,0.6800457264239406,0.15507076573931705,-0.33034915591706326,3.4651240275258504
1777262866.0870764,-0.586241537,-0.3720839143,10.725827304500001,0.21563542908389943,-0.0003054326190990077,0.1518000116922068,0.17701200831928726,-0.3303802341643437,3.4805699164242148
1777262866.1914203,-1.0109675485,0.09092725880000001,9.9026963301,-0.16264286967022157,-0.10949759394699425,0.061086523819801536,0.1600412184311026,-0.3418056391876568,3.486943922016021
1777262866.2930343,0.015553346899999999,-0.41156548719999997,12.271590704100001,0.23640484718263194,-0.04291328298341058,0.7034113217850148,0.1840632601975644,-0.3461662294566334,3.55842035895163
1777262866.3978393,0.3397808092,0.40677984199999995,9.6023970938,-0.1867720465790432,-0.02428189321837111,0.8497135463334394,0.1644886172238071,-0.3487110930975389,3.6474745809516183
1777262866.4994652,0.6616154488999999,0.5168496816,8.3820575678,0.3672827244665567,-0.1270599695451872,-1.0534371032724774,0.20181406175617045,-0.3616236793141403,3.5404180668625362
1777262866.6005666,-0.30747770409999997,1.1234302107,10.493723512299999,0.16966781990949875,0.03436116964863836,-0.16478089800391463,0.21896771562404052,-0.35814971700966614,3.5237584876335246
1777262866.702069,-0.610169763,-0.4103690759,9.9732845968,-0.23273965575344385,-0.006261368691529657,-0.11560624632897441,0.19534407768000375,-0.3587852610750897,3.5120241740353384
1777262866.806728,-0.1902293967,-0.5814558918,9.6945207639,0.05665775084286592,0.058948495486108476,1.8422168420956646,0.20127381227846006,-0.35261577979475506,3.704828455601857
1777262866.9078681,-0.777667345,-0.6113661743,9.7591269741,0.08521570072862314,0.016187928812247405,-0.11270463644753383,0.20989255046558036,-0.3509785284545494,3.6934294792898594
1777262867.0108063,-0.5874379483000001,-0.3804587934,11.278569325100001,-0.12476922490194463,-0.027336219409361186,-0.4066835323303287,0.1970490341328791,-0.3537924689974546,3.6515662185873095
1777262867.11261,0.0933200814,-0.4247260115,10.5391871417,-0.08628471489546966,-0.05268712679457882,0.6942483432120445,0.18826492403463493,-0.3591562176415152,3.7222433239087573
1777262867.2144332,-0.8195417405,0.131605243,9.8285188295,0.15012013228716228,-0.022143864884678056,0.21181752134516182,0.2035506200015473,-0.36141097442198544,3.7438112387674627
1777262867.3155873,-0.5503491979999999,-1.1497512593,10.394421374399998,-0.02871066619530672,-0.02229658119422756,0.2599231588532555,0.20064641871872446,-0.3636663647799223,3.770103529104508
1777262867.417197,-0.6975077879,-0.8626125473,10.4243316569,-0.10064004799312304,-0.06246097060574707,1.2796099577152926,0.19042041294188874,-0.370013005694529,3.900124321826976
1777262867.5185525,-0.0849452023,0.1363908882,10.699506255900001,0.13011429573617728,-0.012522737383059314,-0.4393648225739225,0.20360821929693138,-0.37128225466297204,3.8555922574097723
1777262867.6200745,-0.7908278692999999,0.2285145583,10.3549398015,0.047036623341247176,-0.024892758456569127,-0.24358251373145862,0.20838346990619333,-0.37380941651138017,3.83086328104038
1777262867.7212975,0.4761716974,1.0313065406,10.0127661697,0.29046642076315626,-0.026114488932965158,-0.5013676442510211,0.23778535007491874,-0.3764528032142466,3.780113348025698
1777262867.8247135,-0.2009970984,-0.5252245607,10.147960646600001,0.1711949830049938,-0.07803803417979646,-0.2565634000431664,0.25548964462254337,-0.38452318190633955,3.753580596161283
1777262867.9265544,-0.9643075078,-0.6735795618999999,9.7316095142,0.04108068726881653,0.03451388595818787,0.5444336435439812,0.2596733417814163,-0.3810082541817846,3.8090262480995065
1777262868.027708,-0.9583254512999999,-0.4725824635,9.3643112451,-0.0635299847725936,-0.1310305935934743,-0.3255911719595422,0.25324705434267,-0.3942624720241989,3.7760915249759317
1777262868.128694,-0.1256231865,0.4474578262,10.0235338714,-0.24327708111235963,-0.02199114857512855,-0.10308350894591509,0.22867947408658035,-0.39648327023943863,3.7656815333419953
1777262868.2299557,-0.2679961312,-0.3553341561,10.059426210400002,0.04260785036431157,-0.02580905631386615,-0.694401059521594,0.23299401385824,-0.39909673698284537,3.6953653600741228
1777262868.33116,-0.9200402897,-0.107677017,9.9589276612,0.2267837196810132,-0.05115996369908379,0.19303341527057286,0.25594552307112395,-0.4042743501722838,3.7149011901381535
1777262868.432318,-0.015553346899999999,0.2584248408,9.5330052384,-0.24785857039884474,-0.0876591616814152,0.3947716601854674,0.23087266968262024,-0.41314176720555623,3.7548354637113404
1777262868.5334535,0.526420972,0.5611168997,9.6382894328,-0.14340061466698412,-0.12217304763960307,-0.3666718592283587,0.2163697779185917,-0.42549779852741226,3.71775192470662
1777262868.634505,-0.32901310749999996,-1.2119646469,9.7758767323,-0.5009094953223726,-0.07620543846520242,-0.34452799434368064,0.16575208749678877,-0.4331984776495097,3.682936830318941
1777262868.7355106,-0.40677984199999995,-0.1495514125,9.8069834261,0.08231409084718257,-0.11743884204356844,-1.0589348904162597,0.1740662678612133,-0.4450604529746348,3.5759785248515574
1777262868.8370907,0.08614161359999999,0.2883351233,9.4193461649,-0.07528914060790538,-0.05818491393836096,2.5592199154305852,0.16641838619380842,-0.4509708848514731,3.8359444497650887
1777262868.9381292,-0.6963113766000001,0.4689932296,9.8380901199,-0.12660182061653869,-0.02199114857512855,3.0503555669417897,0.15362673371659158,-0.45319283654835996,4.14414766638744
1777262869.0391157,-1.2514462198,0.7489534738,11.0249301295,-0.0836885376331281,0.058643062867009474,2.08075971761199,0.14517532282501366,-0.44727068001119585,4.354276267478222
1777262869.141475,-0.7597211755,0.4558327053,10.5978112954,-0.18264870622120657,0.05406157358052436,0.8901833683640578,0.12647953004339227,-0.44173697545877616,4.445394809387981
1777262869.2437298,0.33140593009999997,-0.6867400861999999,9.8727860476,-0.2658790949256862,0.007330382858376184,1.1010845918519225,0.09929209840646569,-0.44098740813047493,4.557986068493231
1777262869.3452592,-1.0983055734,0.1519442351,10.106086251099999,0.21991148575128552,0.005955936072430649,0.28130344219018605,0.12161957077131005,-0.4403827057539271,4.586546626893261
1777262869.4462397,-0.48095734259999995,-0.7812565789,10.475777342799999,0.10277807632681608,0.007788531787024695,0.028099800957108706,0.13199815438892304,-0.439596215762102,4.589384159412787
1777262869.5475929,-0.2177468566,-0.09690931529999999,10.2077812116,-0.37293322791988837,-0.09376781406339535,0.9824240193319582,0.09420019010495315,-0.44909988081957847,4.688955946570354
1777262869.649166,-0.2548356069,0.1710868159,10.8143617407,0.5401575868765951,0.018936822384138473,2.6502388359220896,0.14906574028430328,-0.44717640662612657,4.9581492623216805
1777262869.7505891,-0.47856452,-0.43429730190000004,9.8739824589,0.06490443155853913,-0.061850105367549056,0.9619600338523246,0.1556485440773929,-0.45344943141718846,5.05571415901032
1777262869.8534496,-0.1112662509,0.5300102059,10.255637663599998,0.026572637861613665,0.05115996369908379,1.5062409610867562,0.15838181758531228,-0.44818709449102184,5.210646783197727
1777262869.954593,-1.2191431147,-0.5802594805,9.1848495501,-0.38576139792204667,-0.15989397609833053,-0.20784689729687472,0.11936461358796774,-0.46435930849942236,5.189624449610876
1777262870.0589948,-0.2285145583,-0.4247260115,10.973484443599999,0.28359418683342863,-0.09483682823024188,-0.42730023411951173,0.14897236477983428,-0.47426044662012734,5.145013524551725
1777262870.1599894,0.12323036389999999,0.8913264185,9.2231347117,-0.0798706298943905,-0.15745051514553846,0.2075414646777757,0.14090586350464687,-0.49016209636146235,5.165974089050731
1777262870.261441,-0.35772697870000003,-0.7286144817,10.888539241299998,0.36545012875196264,0.007483099167925688,-0.9665415231388097,0.17798137670931835,-0.48940292371330985,5.067916870884259
1777262870.3625906,-0.095712904,-0.5970092387,9.3463650756,-0.24510967682695364,-0.0358883327441334,-0.4873177437724667,0.15318864098649312,-0.4930330127443777,5.018624895998568
1777262870.4640791,-0.3744767369,-0.0251246373,10.339386454600001,0.41569379459374944,-0.015271630954950384,-0.05696318346196493,0.1953768181715278,-0.4945829090406685,5.012843782813404
1777262870.5651157,-0.3864408499,-0.5670989562,9.5533442305,-0.12476922490194463,-0.019394971312786988,0.9312640556328744,0.18277056631412875,-0.49654251000258975,5.106935488843293
1777262870.668546,0.1734796385,0.7944171031999999,10.8119689181,0.39965858209105154,-0.11774427466266746,-0.8654433262170382,0.22410736182670385,-0.5087208322571543,5.017422450948848
1777262870.7696228,0.0071784678,-0.8422735552,10.9507526289,0.32849278184098274,-0.02580905631386615,-0.1032362252554646,0.2573103746229006,-0.5113295301476969,5.006987659386677
1777262870.8725584,-0.3397808092,-1.0037890807,10.756933998300001,0.14187345157148906,-0.04505131131710363,0.9666942394483593,0.27191419675926204,-0.5159669117733445,5.106494865116675
1777262870.9799206,-1.1174481541999999,-0.2009970984,10.6349000457,-0.26083945671055253,0.09514226084934088,1.8591683524556595,0.2439098804885938,-0.5057522226418303,5.306099400408897
1777262871.0814724,-0.9272187574999999,-0.7800601676,10.9890377905,-0.34712417160602227,-0.05299255941367783,0.6388123228455745,0.20865880604818665,-0.5111337109087997,5.370971923235216
1777262871.1872358,-0.41515472109999996,0.09690931529999999,9.0257268472,0.09819658704033096,-0.019394971312786988,0.819628433352187,0.21904441443456946,-0.5131849897036218,5.457658642068368
1777262871.288714,0.41276189849999995,-0.011964113,9.547362174,0.10522153727960813,-0.1867720465790432,-0.06154467274845005,0.22972209609815883,-0.5321382620905156,5.451413205623627
1777262871.4220831,-0.09690931529999999,-0.3900300838,9.822536773,-0.6553056842769209,-0.04184426881656405,1.707979206001651,0.14232449639309427,-0.5377189990560686,5.67920503855335
1777262871.526193,0.7872386353999999,0.0586241537,11.1541425499,0.2948951937400919,-0.04016438941151951,-0.9937250262386215,0.17302596544733984,-0.5419005041628872,5.575748560492254
1777262871.6273873,0.263210486,-0.3086741154,9.937392257800001,-0.12568552275924166,-0.0638354173916926,0.3277292002932352,0.1603072966813342,-0.5483602897572861,5.608912914285509
1777262871.7290297,-0.17587246110000002,1.2011969452,11.3371934788,0.6589708757061091,0.08582656596682116,-0.4633412831731946,0.22728665839668738,-0.539636674164232,5.561817808041156
1777262871.8300672,-0.3852444386,-0.1902293967,8.930013943199999,-0.46517387888778866,0.10873401239924674,-0.028252517266658207,0.18028665154386392,-0.5286504611375707,5.558963244263161
1777262871.9315107,-0.9726823869,-0.3661018578,10.1802637517,0.25595253480496843,0.06398813370124211,-0.1760819049105779,0.20625137996400036,-0.5221592790325367,5.54110087441327
1777262872.0333824,0.040677984199999996,0.8159525066,9.629914553699999,0.06979135346412325,-0.010231992739816757,-0.49724430389318447,0.21336114580345883,-0.5232016298230043,5.490445737491439
1777262872.1344795,-0.0083748791,-0.8817551281,8.8378902731,-0.5406157358052436,0.03329215548179183,1.5413657122831421,0.15870645895077265,-0.5198358892202118,5.646273351729903
1777262872.2363846,0.5659025448999999,-0.4522434714,10.2341022602,0.7869471431085933,0.06582072941583615,1.0613783513690516,0.23890039216463077,-0.5131284207134832,5.754433226722395
1777262872.3375616,0.5623133109999999,0.1495514125,10.1611211709,-0.05513058774737088,0.048411070127192715,-0.18539759979309767,0.23332244594743037,-0.5082303349770496,5.735675258003057
1777262872.4391367,0.5826523031,-0.035892339,9.2949193897,-0.2428189321837111,0.017867808217291947,1.0076222104076262,0.20865807984264834,-0.5064154099240562,5.838024621247932
1777262872.5402415,-0.9906285563999999,0.8291130308999999,9.945767136899999,0.09086620418195478,0.036499197982331415,2.7546967916539504,0.21784508345760245,-0.5027251681358645,6.116537514032037
1777262872.6442754,-0.6927221427000001,0.7070790783,9.8991070962,0.012980886311707827,0.11774427466266746,2.0854939232080243,0.21919553629605043,-0.49047576650711877,6.333499678289043
1777262872.745745,-0.21296121140000002,-0.5347958510999999,10.1228360093,0.2530509249235278,-0.05482515512827187,1.8208365587587343,0.2448724913622316,-0.49603884850395585,6.518259083994582
1777262872.8471224,-0.5575276658,-0.0658026215,9.6239324972,-0.33276883850836886,-0.321009682673057,1.394605338806069,0.21113722270157503,-0.5285820034946397,6.6596406688542045
1777262872.9483778,-0.8757730716000001,-0.4941178669,9.7806623775,-0.1954768762233649,-0.07284567965511334,1.7672331341068583,0.19134413011110993,-0.5359580231553052,6.838582596554878
1777262873.0499268,0.4474578262,0.3852444386,9.870393225,-0.20173824491489456,-0.0798706298943905,0.9608910196854781,0.17085783120624604,-0.544068798573355,6.936160032368204
1777262873.15227,0.3098705267,-0.4235296002,10.8861464187,-0.3321579732701708,0.003817907738737596,1.0858129608969722,0.13686368117611464,-0.5436780612166868,7.047285736604634
1777262873.253859,-0.5694917788,0.346959277,10.0115697584,0.7194465342877125,-0.00519235452468313,0.06933320453547474,0.20995150958037978,-0.5442055471359705,7.054329225056244
1777262873.3554926,0.2560320182,-0.394815729,9.2099741874,0.16691892633760771,-0.14782938764391973,0.38805214256528925,0.22691607241536935,-0.5592299724097765,7.093768341399985
1777262873.456709,-0.9176474671,-0.6759723845,9.6825566509,-0.5496259980686643,0.009468411192069237,-0.33597588100890846,0.17128495359039,-0.5582716147084292,7.059762100384438
1777262873.558094,-1.0360921858,0.1100698396,9.153742856300001,0.18035796157796402,0.04520402762665313,-0.026114488932965158,0.18957056655058874,-0.5536885990977444,7.057114479879616
1777262873.6590993,-0.2321037922,-0.5886343596,9.443274390900001,0.16875152205220173,0.011453723216212788,-0.14599679192932566,0.20661536732393496,-0.5525317121674268,7.042368027807835
1777262873.7606847,-0.1890329854,-0.47736810869999996,9.7722874984,-0.7539604202459004,0.09865473596897947,-1.0094548061222204,0.1300240053581897,-0.5425098325178681,6.939822169474115
1777262873.8617728,-0.5778666579,-0.24167508259999998,10.333404398099999,0.4647157299591402,0.05436700619962337,0.3469714552964727,0.1770012109227591,-0.5370139780384114,6.974896836264356
1777262873.9632146,-0.16749758199999998,0.1088734283,10.2472627845,0.08888089215781124,-0.10888672870879623,-0.5125159348481348,0.18601745395939193,-0.5480596503496128,6.9229062664517445
1777262874.0653362,-0.0825523797,-1.2981062605,10.796415571199999,0.24342979742190912,-0.09697485656393494,0.9358455449193595,0.21087689230719145,-0.5579628770439997,7.0184763029607256
1777262874.167708,0.42233318890000004,0.3397808092,9.2817588654,-0.26633724385433466,-0.14935655073941473,-0.4906775025825558,0.18361149783609768,-0.573252759952675,6.968244816472409
1777262874.2696824,-0.2201396792,-0.0263210486,10.683952909,0.16019940871742955,-0.09712757287348445,-0.20280725908174108,0.19994775040657164,-0.5831572943995973,6.94756365020588
1777262874.3758786,1.4057832774999999,0.12323036389999999,10.6217395214,-0.37995817815916555,-0.061391956438900545,0.6388123228455745,0.15959764899344628,-0.589676884740464,7.015403069101018
1777262874.4779682,0.17587246110000002,0.8697910151,9.8991070962,0.5088507434189468,-0.09957103382627651,-0.400422163638799,0.21154603997280208,-0.5998420560845636,6.9745241131742866
1777262874.580095,-1.3136596074,-0.8997012976000001,10.7581304096,0.2031126917008401,-0.16768250788535521,0.18173240836390955,0.23228929668541676,-0.6169669401976846,6.99308386918031
1777262874.6811473,-0.4522434714,0.6053841178,10.2687981879,-0.1798998126493155,-0.058337630247910464,0.9346238144429634,0.21411000968272537,-0.6228620909914266,7.087529740535549
1777262874.782882,-0.5395814963,-1.1653046062,9.2769732202,0.036804630601430424,-0.16096299026517705,0.016646077740895916,0.2178543154615659,-0.639237602571916,7.089223223232203
1777262874.8842776,0.32542387359999997,-1.1090732750999999,10.5439727869,0.5193881687778625,0.09682214025438543,0.9137016800346814,0.27051799410062605,-0.6294202628903035,7.181868559691332
1777262874.9856982,-0.6053841178,-0.0502492746,9.8799645154,0.08139779298988555,-0.1837177203880531,-0.14553864300067715,0.27877341043720405,-0.648053031845094,7.167107937235874
1777262875.0897448,0.17587246110000002,-1.1796615418,9.8847501606,0.48380526865282814,-0.06979135346412325,0.31001410838549276,0.32911169556291264,-0.6553145837082407,7.199363845949633
1777262875.1913002,-0.3302095188,-0.394815729,9.4767739073,-0.4401284041216701,-0.0013744467859455344,1.1294898254281305,0.2844143025629675,-0.6554541661291288,7.314069577603899
1777262875.2922804,-0.1639083481,-0.5096712138,11.743973320799999,0.6873761092823167,-0.025656340004316644,0.020922134408282025,0.35382573580139065,-0.6580449505734867,7.316182300632929
1777262875.3937755,-0.59820565,-0.19381863059999999,9.4695954395,-0.21303925182155786,0.02672535417116317,0.9130908147964834,0.3322033110702102,-0.6553324600158117,7.40885647802915
1777262875.495126,-0.7800601676,0.4606183505,10.0163554036,-0.06765332513043021,0.02153299964648004,0.8312348728779494,0.32534660963742895,-0.6531500787471386,7.493102586152465
1777262875.5961998,0.5730810127,-0.6903293201,10.360921858,0.4103487237595168,-0.037110063220529434,-1.2220359090151296,0.36682209063696236,-0.6569009316994596,7.369586844076444
1777262875.69897,0.8530412569000001,-0.047856452,9.6921279413,-0.15302174216860284,-0.08155050929943505,-1.996613031050213,0.3510959959233278,-0.6652819043312769,7.16439426694465
1777262875.800096,-0.0586241537,-1.4081761001,10.6540426265,0.020616701789183015,-0.1912008195559788,-0.04902193536539073,0.35318087959270117,-0.6846172699168728,7.159436876886362
1777262875.9018273,0.622133876,0.0251246373,9.1369930981,0.06261368691529658,0.003665191429188092,0.9688322677820523,0.35955065138255277,-0.6842444052267351,7.257997443312749
1777262876.0028582,0.0586241537,0.09690931529999999,10.1958170986,-0.24037547123091904,-0.011453723216212788,1.1013900244710215,0.33526531883727545,-0.6854015843505571,7.3692717878594705
1777262876.104425,-1.2969098492,-0.5240281494,10.1874422195,0.00839939702522271,0.08552113334772216,1.4643966922701923,0.3361184186439511,-0.6767154772280414,7.5180058614269765
1777262876.205503,-1.0085747259,-0.48933222169999996,10.1359965336,0.18555031610264716,0.050396382151336266,0.9886853880234878,0.35487347970112515,-0.6716215100273274,7.6179402361464374
1777262876.3068767,-1.1030912186,-0.3672982691,12.026326387600001,0.23014347849110228,0.04123340357836603,0.26465736444929017,0.3782039693143217,-0.6674415284775178,7.644769525130956
1777262876.4078941,-0.7369893608,-1.4368899712999998,10.3561362128,0.15821409669328595,-0.20189096122444408,0.6426302305843121,0.3941863578919622,-0.6878360436316112,7.709686408465619
1777262876.5092945,0.49531427819999996,-0.42233318890000004,10.0199446375,-0.5296201615176793,-0.012522737383059314,0.9315694882519734,0.3404826747125563,-0.6891058539028659,7.804147904254078
1777262876.6107545,0.8793623055,-0.3361915753,9.9888379437,0.42073343280888303,-0.04612032548395016,0.1831068551498551,0.3831702803952992,-0.6937852212045678,7.822725922117457
1777262876.7137127,0.0143569356,0.22492532440000002,10.030712339199999,0.02672535417116317,-0.05314527572322733,0.7915286323950784,0.3859218748182516,-0.6992569632570673,7.904220287226955
1777262876.8164327,-0.3278166962,-0.30747770409999997,10.336993631999999,-0.1435533309765336,-0.03466660226773737,2.361299578254428,0.3711760734732373,-0.7028179174116612,8.146773032329731
1777262876.9175313,-0.0370887503,0.299102825,9.0999043478,-0.03436116964863836,-0.21716259217939446,1.651016022539686,0.36770220947685806,-0.7247727378687778,8.313688337506868
1777262877.018979,-0.0741775006,-0.2835494781,9.8309116521,-0.4644102973400412,-0.06017022596250451,2.1394027804789992,0.3205887969180451,-0.7308768761615014,8.530726087107793
1777262877.1201477,0.7441678286,1.1330015010999999,10.558329722499998,-0.09086620418195478,-0.017715091907742442,0.6711881804700693,0.3113959872998254,-0.7326690877845493,8.59862927748103
1777262877.2215462,-0.6460621019999999,0.0741775006,10.1192467754,0.561690586523075,0.06215553798664806,1.7774651268466752,0.36835055227316016,-0.7263666114538948,8.778861518297953
1777262877.322632,-0.8267202082999999,0.0334995164,9.7591269741,0.21532999646480042,0.012064588454410803,1.000597260168349,0.3901173790341981,-0.7251470516566452,8.880007794140733
1777262877.4246526,1.6283157793,-0.2081755662,11.082357871900001,0.26404649921109213,-0.12476922490194463,-0.17654005383922644,0.41705553545894036,-0.7378760706265783,8.861997089208979
1777262877.525826,-1.8783657409999999,-0.39122649509999996,10.5391871417,-0.3680463060143042,0.05406157358052436,1.8988745929385307,0.37981903899855457,-0.7324064773705714,9.054112689619119
1777262877.6272736,0.10169496049999999,-0.6580262149999999,10.3262259303,-0.09208793465835081,-0.049785516913138254,-0.1232420618064496,0.37047694067354103,-0.7374570976922206,9.041610080417982
1777262877.7283866,0.43429730190000004,0.7944171031999999,10.5236337948,0.3425426823195371,-0.07437284275060838,0.1351539339513109,0.4051124866494725,-0.7449771649638561,9.055275911086149
1777262877.8299584,-0.8327022648,-0.6029912952,9.8668039911,-0.2551889532572209,0.06230825429619756,-0.612850550222159,0.37919248575456815,-0.7386484035245258,8.993027578595873
1777262877.931511,0.6891329087999999,-0.8291130308999999,10.5224373835,0.2871066619530672,-0.03390302071998985,-0.017409659288643436,0.408348881143556,-0.7420913395757786,8.991259584407391
1777262878.0354965,0.1950150419,0.5276173833,10.953145451500001,-0.3553708523216954,0.040317105721069016,-0.5090034597284963,0.37139544831475996,-0.7378989432428167,8.938330580703749
1777262878.1370792,-0.6077769404,-0.023928226,9.8010013696,0.19929478396210248,0.001832595714594046,-0.5742133239061344,0.3916403636351442,-0.7377127831019396,8.880000403228925
1777262878.238406,-0.2608176634,-1.2143574695,9.911071209200001,-0.45860707757716,-0.004734205596034618,0.7744244057255341,0.34517122002158995,-0.7381924845511637,8.95847027577782
1777262878.342342,0.1256231865,-0.11844471869999999,10.217352501999999,0.27320947778406235,-0.0911716368010538,-0.28817567611991374,0.37356750854424026,-0.7476684958692309,8.928518461109155
1777262878.44344,0.0741775006,-1.0863414604,11.358728882200001,-0.25747969790046343,-0.02871066619530672,-0.8420777308559642,0.3475368104405928,-0.7505710885403375,8.843386035638508
1777262878.5450578,-0.7561319416,-0.6903293201,9.798608546999999,-0.04169155250701455,0.016951510359994926,-0.9541715020653,0.3433002060496546,-0.7488485131286373,8.746425214266413
1777262878.6462455,0.5910271822000001,1.0013962581,9.8799645154,-0.029474247743054238,-0.05635231822376691,-0.9318749208710724,0.34031777453464634,-0.7545506749371246,8.652130928750452
1777262878.7478175,-0.1507478238,-0.1591227029,10.097711372000001,0.24694227254154769,-0.036041049053682904,-0.5531384731883029,0.3654002041146769,-0.7582114376958674,8.595947527427713
1777262878.8498137,0.7070790783,0.0143569356,10.7413806514,0.1351539339513109,-0.01114829059711378,0.06994406977367276,0.37918538954858266,-0.7593485207881557,8.603081555595768
1777262878.9526682,0.0873380249,-0.062213387599999996,9.320044027,-0.21609357801254792,-0.0516181126277323,-0.5442809272344317,0.35695919472928794,-0.7646576754517046,8.547099818255862
1777262879.0536423,-0.43190447930000003,-0.2261217357,10.565508190300001,0.1511891464540088,0.05131268000863329,0.8533787377626275,0.3722253801439875,-0.7594764246442914,8.633268953707722
1777262879.155203,0.5682953675,0.0490528633,10.5056876253,-0.1035416578745636,-0.09239336727744982,0.44562619126545217,0.3617096033198868,-0.76885997181034,8.678527120039176
1777262879.256808,0.394815729,0.7214360139,9.6131647955,-0.15775594776463747,0.14508049407202864,0.6947064921406929,0.34568081994813465,-0.7541190771315748,8.7491127304536
1777262879.358572,0.2667997199,0.1088734283,9.852447055499999,0.25259277599487934,-0.1272126858547367,-0.6212499472473816,0.3713856620351933,-0.7670647442769919,8.6858918733737
1777262879.4599388,-0.24167508259999998,-0.3780659708,10.2951192365,-0.17165313193364232,-0.03375030441044035,0.7173085059540195,0.35398574049104603,-0.7704859032282878,8.758603111356672
1777262879.5686295,-0.4163511324,-1.6486547714,10.059426210400002,0.4163046598319474,-0.1708895503858948,0.28802295981036424,0.39923420148326494,-0.7890600146920783,8.789908539614679
1777262879.6705458,0.09930213789999999,-1.4165509792000002,10.468598875,0.23762657765902798,-0.048258353817643214,-0.20005836550985004,0.42345222618980727,-0.7939783281928928,8.76951932858282
1777262879.7720213,0.2715853651,0.9367900479,10.1348001223,-0.16569719586121168,-0.08384125394267761,-0.1345430687131129,0.40663802416600237,-0.8024861594473343,8.755866506478698
1777262879.87317,0.3218346397,0.5407779076,10.1898350421,-0.11728612573401895,-0.06887505560682623,-0.4057672344730317,0.394774696121491,-0.8094527752651397,8.714823716616372
1777262879.974264,-0.2009970984,0.1100698396,9.5126662463,-0.05665775084286592,0.02153299964648004,3.1088459134992497,0.38904693703329873,-0.8072759180375518,9.029109408687342
1777262880.0754244,-1.6773686425999998,0.020338992099999998,10.4913306897,-0.47952921198544207,0.012064588454410803,2.6856690197375745,0.340537509584311,-0.8060554579202047,9.300793100126162
1777262880.1766093,-0.11844471869999999,0.2081755662,10.7856478695,0.1792889474111175,-0.02901609881440573,2.310139614555345,0.3586788339330655,-0.808991447380395,9.534544218885625
1777262880.2779937,-0.7286144817,-1.1030912186,10.5535440773,-0.18020524526841453,-0.13759739490410294,2.058004987489114,0.34040883302654923,-0.8229416768861332,9.743193822458686
1777262880.3798394,-0.0131605243,-0.6807580296999999,9.7124669334,0.05390885727097486,-0.038484510006474966,1.6986635111191313,0.3458992205564366,-0.8268611603352313,9.916195466920266
1777262880.481162,0.4725824635,-0.2213360905,9.8500542329,0.22082778360858255,-0.13805554383275148,-0.22586742182371616,0.3682740769861108,-0.8408493140091078,9.89330998098701
1777262880.583872,0.1423729447,-0.3900300838,9.6729853605,0.3462078737487252,0.0160352125026979,0.6579018615392626,0.4038330906835752,-0.8392023371947126,9.96088308685762
1777262880.6853106,-0.0275174599,0.40558343069999997,9.522237536699999,-0.04413501345980661,-0.04276056667386108,0.34009922136674503,0.3993561001348064,-0.8435399058924816,9.995382249321663
1777262880.7863007,-0.0586241537,-0.36011980130000004,9.1346002755,-0.2692388537357753,-0.11698069311491993,0.3162754770770224,0.3721656529516835,-0.8553537927570716,10.02732292777671
1777262880.887725,0.2105683888,0.6687939167,10.4051890761,0.08933904108645975,0.06032294227205401,-0.5238169417547981,0.3812268165615185,-0.8492355711743624,9.974195079602806
1777262880.988789,-0.9786644433999999,-0.0071784678,9.2674019298,-0.20693059943957767,-0.026114488932965158,0.8486445321665929,0.36031358933997215,-0.8518748050156055,10.059962462385192
1777262881.091546,1.3746765837,0.16151552549999998,10.7760765791,-0.023212879051524585,0.10812314716104872,-0.21074850717831528,0.35792830405928366,-0.8407643972608198,10.038306582863152
1777262881.1928782,-0.5012963347,-0.1052841944,9.0999043478,-0.29275716540639884,0.002748893571891069,-0.18448130193580065,0.3282625800376827,-0.840485845861556,10.019612688957
1777262881.294333,-1.0827522265,-0.20578274359999998,10.0821580251,-0.25579981849541894,0.1264491043069892,-1.1838568316277538,0.3023104772897673,-0.8276569855181088,9.89950480806038
1777262881.3970425,0.1040877831,0.10169496049999999,9.4719882621,-0.6059783162924312,-0.0716239491787173,-0.24129176908821603,0.2400707281520801,-0.8350134478027801,9.874721843433981
1777262881.4987032,0.46540399569999996,-0.39960137419999997,9.745966449800001,0.21624629432209744,0.01038470904936626,-0.14110987002374156,0.2620544839584702,-0.8339577307160325,9.860376511255236
1777262881.6016366,-0.155533469,-1.5457633996,8.3545401079,-0.4262312199526652,-0.2002110818193995,0.634994415106837,0.21818105239150606,-0.8545661394527899,9.9257386497201
1777262881.7030761,-0.2309073809,-0.25363919560000003,9.1836531388,-0.07284567965511334,-0.036499197982331415,0.11056660811384078,0.21079162481746713,-0.858268598971019,9.936954468511724
1777262881.8052254,-0.2907279459,0.4211367776,10.5212409722,0.40714168125897726,-0.16783522419490474,0.139735423237796,0.2523808414376746,-0.875412840931112,9.951228336931637
1777262881.906243,0.5407779076,-0.8638089586000001,9.6538427797,0.09926560120717749,-0.02504547476611863,-0.9476047007546714,0.26240842550546745,-0.8779428775266782,9.855503476715246
1777262882.0072114,-0.5312066172,0.7597211755,10.6384892796,-0.25610525111451793,0.04550946024575214,-0.14004085585689502,0.23654989808232657,-0.8733478619201809,9.841363781040219
1777262882.1093524,-0.3505485109,0.0681954441,9.7292166916,-0.05436700619962337,-0.14019357216644454,-1.3093896380774457,0.23099680294998026,-0.8876673600423548,9.707621540408935
1777262882.2103949,0.4247260115,-0.3038884702,10.7018990785,-0.06123924012935104,-0.05803219762881146,0.5818491393836096,0.2248090364732205,-0.8935310788981371,9.7664130373577
1777262882.311422,0.7680960546,-0.7812565789,10.9399849272,-0.36041049053682905,-0.06307183584394509,-1.108720407329398,0.18839775563864453,-0.8999030530441879,9.654402063264893
1777262882.4126112,-0.7633104094,-0.6795616184,9.4002035841,-0.2551889532572209,-0.16584991217076114,-0.5630650333090206,0.16257540581289914,-0.9166852624461984,9.597425998748122
1777262882.5150092,-0.37567314820000003,-0.5407779076,9.2817588654,-0.03390302071998985,-0.09239336727744982,-0.28420505207162666,0.15910380705348948,-0.9261461509572022,9.56832399293163
1777262882.6168246,-0.107677017,0.2333002035,9.945767136899999,0.12782355109293472,-0.12370021073509811,-0.9860892107611463,0.17211822097686802,-0.9387407450766008,9.467924864253906
1777262882.717875,0.17587246110000002,0.6005984726,10.3405828659,0.2922990164777503,-0.11087204073293978,-0.3310889591033243,0.20165514675713186,-0.9499444065794594,9.434468200151706
1777262882.8195784,-1.0348957745,-0.8063812161999999,10.3441720998,-0.07315111227421234,-0.040317105721069016,1.1441505911448828,0.19421542953149154,-0.9540447935263677,9.550832211538966
1777262882.9211586,-0.4725824635,-0.5479563754,9.260223461999999,-0.2984076688597305,-0.1305724446648258,-0.31215213671918585,0.16390313586392738,-0.9673083611239969,9.519123752861125
1777262883.0241416,-1.1066804525,-0.3158525832,10.2149596794,0.011606439525762293,0.015424347264499889,0.9549350836130475,0.16509840180116914,-0.9657199156021361,9.617465830566028
1777262883.1252053,0.13758729949999998,0.2859423007,10.060622621699999,-0.10858129608969723,-0.11407908323347936,-0.6861543788059207,0.1541247711911671,-0.9772491730784674,9.548120510832218
1777262883.2268493,-0.4594219392,0.8781658942,10.8705930718,0.23411410253938938,0.02229658119422756,0.4908302188921053,0.1779210741961967,-0.9749828585065597,9.59801047681928
1777262883.3288414,0.17706887240000002,0.08135596839999999,10.889735652599999,-0.5135849490149814,-0.07483099167925687,-0.5865833449796443,0.1255394511666493,-0.9826150307588578,9.538183591878306
1777262883.4298635,0.020338992099999998,-0.09690931529999999,9.4133641084,0.4175263903083435,-0.11866057251996448,0.30497447017035917,0.16771880428990416,-0.994602359718905,9.568992724353485
1777262883.5318274,-0.2596212521,-0.5084748025,10.8203437972,0.3301726612460273,0.04444044607890562,-0.5493205654495653,0.20138452849343494,-0.9900710342132494,9.512981803927907
1777262883.6328163,-0.1854437515,-0.4402793584,9.702895643,-0.6516404928477328,-0.09529497715889039,1.136667491976957,0.13557609479872493,-0.9996947657870715,9.627772563709891
1777262883.7344155,-0.6867400861999999,0.6053841178,10.0091769358,0.36957346910979927,-0.0755945732270044,3.4295501635532077,0.17312446968512124,-1.0073751151956525,9.976212173141215
1777262883.8358939,-0.3864408499,-0.0933200814,9.6239324972,0.35674529910764097,-0.03787364476827695,0.9295841762278297,0.20932638981405904,-1.011218469729889,10.07054483060048
1777262883.9373384,-0.394815729,0.41276189849999995,10.7605232322,-0.08872817584826173,0.07101308394051928,0.5502368633068624,0.2003254059050479,-1.0040145841572725,10.12636332461798
1777262884.0400765,0.20937197749999997,0.32542387359999997,9.9086783866,0.1715004156240928,-0.1466076571675237,0.8356636458548851,0.21794503996081876,-1.0190767824596234,10.21221785494138
1777262884.145877,0.06340979890000001,-0.6209374647,10.624132344,-0.19349156419922137,0.04413501345980661,0.576198635930278,0.19747355695971006,-1.0144072808121725,10.273179895480594
1777262884.2469287,-0.6556333924,-0.3086741154,10.106086251099999,0.0030543261909900766,-0.0158824961931484,1.4928019258464,0.19778220214170963,-1.0160122357585704,10.424030228182893
1777262884.3496137,0.3218346397,-0.2572284295,10.1623175822,0.24816400301794372,-0.037568212149177944,1.2925908440270004,0.22326491650571478,-1.0198699266715212,10.556759886261009
1777262884.4543488,0.0394815729,0.30747770409999997,9.248259349,-0.05803219762881146,-0.020616701789183015,0.3663664266092597,0.21718690639281923,-1.0220292197379446,10.595131323789525
1777262884.555861,-1.4476576730000001,-0.2440679052,10.4350993586,0.02580905631386615,0.045356743936202634,0.3346014342229629,0.21980684031604553,-1.0174249571628073,10.62909744938591
1777262884.6573377,-0.28115665549999996,0.466600407,11.3850499308,0.23594669825398343,-0.061391956438900545,0.7878634409658902,0.2437499253899108,-1.0236548084247452,10.709047207247444
1777262884.7589924,0.3026920589,0.09690931529999999,10.1970135099,0.02580905631386615,0.02641992155206416,-0.26725354171163174,0.2463735390215406,-1.020969097429053,10.681879610470212
1777262884.865561,-0.5958128274,-0.2835494781,9.714859756,-0.12049316823455852,-0.1580613803837365,0.07895433203709348,0.23353275379694763,-1.0378134734841276,10.690293661118012
1777262884.9672673,0.37567314820000003,-0.1411765334,9.598807859899999,-0.47555858793715494,-0.12919799787888026,0.22800545015740925,0.18516546536188255,-1.0509537194751568,10.713483244173103
1777262885.0687385,-1.3998012210000002,0.0011964113,10.2939228252,0.008246680715673207,0.20693059943957767,0.7200573995259106,0.18600226583206098,-1.0299562261956798,10.786548322263682
1777262885.1702197,0.35174492220000003,0.3720839143,10.279565889599999,-0.09712757287348445,-0.0358883327441334,-0.7826710864412072,0.1761456432552071,-1.033598217242159,10.707121921781958
1777262885.2734149,0.48693939909999995,0.28115665549999996,9.038887371500001,0.16493361431346412,-0.08903360846736075,-0.46761733984058074,0.19316599899254167,-1.0427860574225905,10.658866061348885
1777262885.3752677,-0.8051848049,-0.4019941968,9.477970318599999,-0.26419921552064163,-0.028099800957108706,1.6676621002805818,0.16625654434432133,-1.0456481034661005,10.828722272191987
1777262885.476471,-0.43788653580000003,0.0669990328,10.1838529856,-0.4691445029360758,-0.09605855870663792,-1.2767083478338521,0.11877761788291161,-1.0553695373021117,10.699515297837369
1777262885.578388,0.4043870194,0.4103690759,8.4622171249,-0.18173240836390955,-0.06307183584394509,0.17715091907742445,0.10025599085355733,-1.06179763138877,10.717569993092875
1777262885.6800058,-0.8374879099999999,-0.5635097223,11.1158573883,0.5190827361587635,-0.017409659288643436,1.6219999237252802,0.1530040433253485,-1.0635667628926784,10.882394078206994
1777262885.7812388,0.2440679052,0.2117648001,8.641678819900001,-0.25579981849541894,-0.12186761502050406,-0.32162054791125505,0.127108658886645,-1.0759037878372069,10.849835463503764
1777262885.886389,-0.3744767369,-0.4163511324,10.454241939400001,-0.32834006553143325,-0.03390302071998985,0.005803219762881146,0.0925836278489665,-1.0794686980187718,10.850445673354663
1777262885.987486,0.0059820565,-0.0945164927,10.6636139169,0.011911872144861299,-0.17837264955382048,-0.3287982144600818,0.0937878808209632,-1.0975016143173892,10.817205203499421
1777262886.0888777,1.07677017,0.49531427819999996,10.4901342784,0.3045163212417107,-0.012370021073509811,-0.32864549815053223,0.12466333641545989,-1.0987558329247886,10.78388324741148
1777262886.1898813,0.34456645439999994,-0.020338992099999998,9.9613204838,-0.20952677670191927,-0.1553124868118454,-1.2328787669931445,0.10350036785571766,-1.1144429604942185,10.659357995820518
1777262886.2914455,-0.8913264185,-0.10289137179999999,11.0680009363,-0.4615086874586006,0.0759000058461034,0.8173376887089445,0.05662762155998499,-1.1067342394786728,10.742370218909452
1777262886.3941007,-0.6807580296999999,0.7453642399,10.5667046016,-0.015271630954950384,0.058490346557459966,1.109331272567596,0.055059909652269166,-1.1007299028721211,10.85624881188593
1777262886.4954257,0.20937197749999997,0.5970092387,10.5774723033,-0.09896016858807849,-0.04046982203061852,-0.9095783396768449,0.045032767097053734,-1.1048305090096706,10.764085754696326
1777262886.5967627,-0.2548356069,-0.2440679052,6.544369811,-0.004428772976935611,-0.08842274322916273,-0.658360010467911,0.04458396872464898,-1.1137910006518208,10.697369555267468
1777262886.6991065,-0.11246266220000001,0.8183453291999999,9.6107719729,-0.06918048822592524,-0.17363844395778588,0.26374106659199315,0.037503774833994204,-1.1315618184303518,10.724361817627646
1777262886.8002646,-0.3158525832,-0.5934200048,9.6275217311,-0.5039638215133626,-0.027641652028460195,0.5934555789093718,-0.013476269030795185,-1.1343579965938448,10.78439468140297
1777262886.901686,0.7836494015,0.8554340795,9.4049892293,-0.19715675562840945,-0.058948495486108476,-1.0086912245744728,-0.0334721745708515,-1.1403366329520646,10.682091849418406
1777262887.0030906,-0.0538385085,0.0323031051,11.3407827127,0.1821905572925581,0.04581489286485115,0.03787364476827695,-0.01499720179615863,-1.135690789002016,10.685932413750447
1777262887.1041253,-0.2297109696,0.442672181,9.7734839097,0.47815476519949646,-0.047647488579445195,-0.33857205827125,0.033312993375338384,-1.1405048359178598,10.651724907300364
1777262887.2056532,-0.490528633,-0.0849452023,9.7531449176,0.3903428872085318,0.04245513405476207,0.6531676559432279,0.07294369843295795,-1.1361944540688698,10.718039666897955
1777262887.3094206,-0.16869399329999998,-0.14476576730000001,9.5820581017,-0.14217888419058808,0.04596760917440065,-0.0003054326190990077,0.05819016599371701,-1.1314245150095663,10.718007972950717
1777262887.4112248,-0.16749758199999998,-0.7106683122,11.054840411999999,-0.20555615265363217,0.03558290012503439,0.5459608066394762,0.03726367471630945,-1.1278020243203866,10.7735891069156
1777262887.5124588,-1.3292129543,0.0143569356,9.5880401582,-0.26083945671055253,-0.050243665841786765,2.5179865118522193,0.010857863798445399,-1.1328883895381718,11.028494850717557
1777262887.6141765,-0.3361915753,-0.18783657410000001,8.6488572877,-0.06994406977367276,-0.08842274322916273,1.5494596766892659,0.003743313158365214,-1.1418825485351292,11.186102341534705
1777262887.7152572,-0.693918554,-0.1471585899,8.347361640099999,-0.28130344219018605,-0.1605048413365285,0.6029239901014412,-0.02469102332780218,-1.1581064831968892,11.247046294003429
1777262887.817129,-0.0263210486,-0.8171489179,11.168499485499998,0.6426302305843121,-0.038637226316024474,1.0957395210176901,0.040774829303360335,-1.162042524241491,11.358671173430375
1777262887.918338,-0.041874395499999995,-0.6293123438,9.21236701,-0.12507465752104363,-0.1983784861048055,0.5319109061609218,0.028116127819872716,-1.1821202449094401,11.412505431387626
1777262888.0199878,0.3780659708,0.28953153460000003,9.9014999188,0.07620543846520242,0.03497203488683638,1.781435750894962,0.03586239244199811,-1.178565345914517,11.593587950059154
1777262888.1214414,-0.3732803256,0.015553346899999999,10.277173067,-0.1322523240698703,-0.06520986417763813,0.24342979742190912,0.02244492563356465,-1.1851811176549338,11.618284765408626
1777262888.2233446,0.24047867129999997,1.0636096457,10.959127508,-0.4749477226989569,0.03940080786377199,0.17379116026733535,-0.025953767213193542,-1.1811660492451386,11.635994640797568
1777262888.32513,0.047856452,-0.2979064137,10.4590275846,0.2822197400474831,-0.038484510006474966,0.7428121296487867,0.002772087946883422,-1.185083211312422,11.711602086413702
1777262888.426273,-0.8530412569000001,0.4570291166,9.976873830699999,0.03451388595818787,-0.0317649923862968,2.298380458720033,0.00626293011536054,-1.1882960218037637,11.944067460907421
1777262888.5279207,0.6137589969,1.1964113,8.873782612100001,-0.10491610466050914,-0.24052818754046854,-0.5519167427119068,-0.0044015417438719165,-1.212745138511611,11.88796644009335
1777262888.629355,0.2524427843,-0.7357929495000001,10.4961163349,-0.2620611871869486,0.19624045777111243,-1.510669734063692,-0.030983516689879295,-1.1928396386248863,11.734732817619047
1777262888.7311504,-0.021535403399999997,-0.4450650036,9.8775716928,-0.49938233222687756,0.05497787143782138,-0.8646797446692907,-0.0818183584061497,-1.18724314228915,11.646712366916441
1777262888.8326576,0.1543370577,0.6233302873,10.057033387799999,0.4657847441259867,0.006261368691529657,-0.33307427112746785,-0.0345378593338061,-1.186607568367194,11.612902934628972
1777262888.937674,-0.3218346397,-0.39960137419999997,10.1252288319,-0.32604932088819066,0.000916297857297023,0.7457137395302272,-0.0687784080448538,-1.186511342000793,11.69121515915171
1777262889.042243,-0.6795616184,-1.6127624323999998,11.1768743646,0.2635883502824436,-0.04046982203061852,0.2939788958827949,-0.041215248840423685,-1.1907432291324116,11.721956226051205
1777262889.1438603,0.9403792818,0.4211367776,9.1441715659,0.5595525581893821,-0.056810467152415424,0.40714168125897726,0.015644991627632353,-1.196516157476876,11.763328879186531
1777262889.2454555,-1.064806057,-0.6508477471999999,9.945767136899999,-0.3888157241130368,-0.12156218240140505,-0.777784164535623,-0.02385680537486707,-1.2088662872545624,11.684309769943118
1777262889.3475726,-0.0729810893,-0.19860427579999998,9.579665279099999,0.9498954453979138,-0.1395827069282465,-0.21563542908389943,0.0731437263506303,-1.2231200631383412,11.662289713544983
1777262889.4492984,-0.42592242280000003,0.3840480273,9.5712904,-0.061086523819801536,0.02550362369476714,-0.22128593253723108,0.0669296498240669,-1.220525686188501,11.639779221327506
1777262889.5568864,-0.2009970984,0.7094719009,10.1826565743,0.4529565741238284,-0.0317649923862968,-0.03924809155422248,0.11566236561419477,-1.2239432198649496,11.635556595583049
1777262889.661623,-0.3553341561,-0.2225325018,8.1451681304,0.004428772976935611,-0.028099800957108706,0.7064656479760048,0.11612622008979999,-1.2268862965377552,11.70954938193304
1777262889.7679563,-1.0301101293000001,-0.7381857721,10.888539241299998,-0.11316278537618234,0.009315694882519734,1.398575962854356,0.10409325268899522,-1.2258957283711571,11.858264517501961
1777262889.869072,0.20338992099999997,-0.21415762270000002,10.0366943957,-0.3147483139815274,-0.10690141668465268,1.6467399658722996,0.07226725546926446,-1.2367051403332199,12.024775787768995
1777262889.9703803,0.1603191142,0.020338992099999998,10.520044560899999,-0.008704829644321718,-0.04932736798448974,0.9680686862343049,0.07138538357757376,-1.241702414386134,12.12284922498702
1777262890.07203,-0.5288137946,-0.6795616184,9.9984092341,-0.22327124456137462,-0.08078692775168753,-0.0875064453718657,0.04868991488509414,-1.2499143863001707,12.113954215711512
1777262890.17308,-1.0564311779,-0.741775006,9.93021379,0.01313360262125733,-0.04123340357836603,1.386664090709495,0.05001706411733338,-1.2540810176106894,12.25407648348747
1777262890.2744422,-0.42831524540000004,-1.172483074,10.688738554199999,0.10965031025654375,-0.05635231822376691,0.37278051161033887,0.0611314639089813,-1.259793014160993,12.291862346845983
1777262890.3767266,-0.7872386353999999,-0.0658026215,9.4504528587,-0.21319196813110736,-0.02428189321837111,0.03527746750593539,0.03932524465738136,-1.2622766738035462,12.29547068255309
1777262890.4804738,-0.251246373,-1.1712866627,9.894321451,-0.42027528388023455,-0.22418754241867164,-1.3623821974911239,-0.004277109619903366,-1.2855354877857605,12.154127440362807
1777262890.581557,0.24287149389999999,-0.2021935097,10.624132344,0.5459608066394762,-0.06582072941583615,-0.10231992739816757,0.05091039873289254,-1.292188862918643,12.143784606629556
1777262890.6825776,-0.19860427579999998,0.155533469,10.7449698853,0.47235154543661534,-0.059864793343405505,-0.24251349956461207,0.0986276232517862,-1.2982364387386904,12.119285753562629
1777262890.7839339,1.0516455327,0.1651047594,9.475577496,-0.277943683380097,-0.07666358739385093,-1.4222469908345292,0.0704562888099185,-1.306006773842986,11.97513210649828
1777262890.887086,-0.11964113,-0.4295116567,9.6586284249,0.16432274907526612,-0.02336559536107409,1.1078041094721007,0.08740651504773125,-1.3084169825924146,12.089404356618257
1777262890.9881852,0.2201396792,0.8207381518,8.6213398278,-0.12110403347275654,0.0316122760767473,0.4059199507825812,0.07516298776458222,-1.3052210051048838,12.130442560298723
1777262891.0903022,0.015553346899999999,0.1328016543,10.719845247999999,-0.0632245521534946,0.028405233576207712,0.6284276137962083,0.06870668227674365,-1.302320346117594,12.194615741657312
1777262891.1913753,0.5324030285,0.8769694829,10.013962581,-0.32116239898260657,-0.08139779298988555,0.8083274264455238,0.03624582656311502,-1.3105474674182902,12.276315841178109
1777262891.2924714,0.5670989562,0.4247260115,10.850254079699999,-0.16768250788535521,0.012828170002158322,-0.10247264370771707,0.019293770047037168,-1.309250588777716,12.26595625108495
1777262891.394634,-0.5012963347,0.1579262916,10.2185489133,-0.0911716368010538,-0.044898595007554123,0.1715004156240928,0.009979438624973256,-1.3138375459604408,12.283477179371344
1777262891.497427,0.4271188341,-0.4331008906,10.1276216545,-0.04459316238845512,0.05772676500971245,-0.1840231530071521,0.0053955746518395764,-1.3079036398582335,12.264560891400022
1777262891.5986483,-0.8697910151,0.19381863059999999,9.9338030239,-0.42012256757068506,0.06505714786808864,1.4653129901274893,-0.037129787465412074,-1.3013184692795534,12.412881810889308
1777262891.700053,0.8817551281,0.6628118601999999,9.9756774194,0.22937989694335476,-0.05314527572322733,0.7921394976332763,-0.013869595422169256,-1.3067076482616096,12.493208452785646
1777262891.8018794,0.969093153,-0.27517459899999996,10.2699945992,0.03634648167278191,-0.038331793696925465,-1.533424464186568,-0.01016856297337439,-1.3106108379450025,12.337065314893422
1777262891.9033716,-0.6903293201,0.35413774480000004,10.0426764522,-0.10170906215996955,0.026878070480712675,1.398270530235257,-0.020491236046622126,-1.3078829243400603,12.4789788203869
1777262892.0043895,0.32901310749999996,0.9547362173999999,10.476973754100001,0.16508633062301364,-0.1996002165812015,0.558636260332085,-0.003814553029613612,-1.32804612943093,12.535411111299219
1777262892.1074357,-0.11246266220000001,-0.5527420206,10.889735652599999,0.22617285444281518,-0.001832595714594046,2.204459928347088,0.019491695373021443,-1.3282349714166368,12.762572283272235
1777262892.2087214,-0.8159525066,-0.5108676251000001,10.4147603665,-0.2267837196810132,-0.14844025288211773,1.9620991450920253,-0.003478251523065981,-1.3432698457486214,12.961304860862088
1777262892.3113594,-0.107677017,-0.6532405698,10.9040925882,-0.3944662275663684,-0.08414668656177661,1.2495248447340404,-0.04396547863778722,-1.3519064938865275,13.089553599635858
1777262892.412796,-1.0612168231,-0.1220339526,9.9708917742,0.19043723800823129,-0.0003054326190990077,0.9734137570685375,-0.024648169846142636,-1.3519374759375165,13.188293396137817
1777262892.5161195,1.0743773474,0.16271193679999998,10.668399562100001,-0.11362093430483085,-0.047494772269895694,0.6765332513043021,-0.036387877864370345,-1.3568448001225553,13.258195152214093
1777262892.6174622,-2.344966148,-0.0550349198,11.326425777099999,-0.7176139385731185,-0.037262779530078935,1.6809484192113888,-0.1091127962197797,-1.3606211099924679,13.428546966714622
1777262892.719831,-1.4165509792000002,0.0777667345,10.2077812116,0.03512475119638588,0.07651087108430142,1.553124868118454,-0.10551711647835242,-1.3527887815122284,13.587538544846428
1777262892.8212323,0.0263210486,-0.346959277,9.6119683842,0.16783522419490474,-0.14645494085797417,-0.575893203311179,-0.08849840168517421,-1.3676395071597787,13.529142208645268
1777262892.9223902,-0.1926222193,-0.41156548719999997,10.241280728,0.2748893571891069,-0.08872817584826173,0.7086036763096978,-0.060691170570382674,-1.3766150634251642,13.600823071074508
1777262893.024119,-0.9343972253,-0.5359922624,9.9349994352,0.044898595007554123,-0.14019357216644454,1.1391109529297492,-0.056123695867447886,-1.3908767701506544,13.716703322126177
1777262893.1251993,-0.6089733517,0.023928226,10.2723874218,-0.35995234160818057,-0.14523321038157813,-0.579252962121268,-0.09250782888519946,-1.4055570037102139,13.658152190799774
1777262893.2270267,-0.5551348432,-1.136590735,10.3621182693,-0.10812314716104872,-0.16600262848031067,0.22937989694335476,-0.10351772600680725,-1.4224606169463547,13.681509345427818
1777262893.3291318,0.056231331100000004,0.2452643165,10.1156575415,-0.014966198335851376,-0.08720101275276669,-0.07910704834664298,-0.10504585179342446,-1.4313642886214408,13.673432109127127
1777262893.4316669,0.5754738353000001,0.1160518961,10.386046495299999,-0.31169398779053736,-0.03451388595818787,1.264796475688991,-0.137005397756512,-1.4349031702420474,13.803118027630944
1777262893.5326357,0.031106693799999998,-0.5180460929,9.3427758417,0.18463401824535014,-0.139124557999598,-1.2098186042511694,-0.11836311552737545,-1.4489504151640848,13.68096404928585
1777262893.6345353,-0.4247260115,-0.4821537539,9.273383986299999,0.014508049407202865,-0.036193765363232405,-1.0067059125503293,-0.11688475074968178,-1.452638546241068,13.57838109544841
1777262893.7373676,0.0873380249,-0.3720839143,10.4614204072,0.43493604959698695,-0.22067506729903305,-1.2405145824706196,-0.07215926886957094,-1.4753310747933013,13.450816106223641
1777262893.8385,0.0083748791,-0.7501498851,9.8488578216,-0.37522397256313095,0.002901609881440573,-1.678046809329948,-0.11010656708205838,-1.4750376280427773,13.281111217025915
1777262893.9403436,0.22492532440000002,0.2440679052,10.432706536,0.4134030499505069,-0.08674286382411818,-0.9057604319381073,-0.06800411408246454,-1.4838718331790053,13.188865317971393
1777262894.0413554,-0.0705882667,-0.6388836341999999,9.728020280299999,-0.28817567611991374,-0.03222314131494531,-1.367879984634906,-0.09711324432300703,-1.4871267491730458,13.050693362717265
1777262894.142682,0.3493520996,0.1328016543,9.9050891527,0.10155634585042005,0.030848694528999777,0.30405817231306215,-0.08682287452513371,-1.4840009526329399,13.081502575149695
1777262894.243683,0.9308079913999999,0.1531406464,10.034301573099999,0.08475755179997463,0.0277943683380097,-1.3362677085581585,-0.07826227498073458,-1.4811936929625242,12.946538167918177
1777262894.3450859,-0.5180460929,-0.051445685899999996,9.8644111685,-0.06536258048718764,-0.046883907031697675,0.43707407793068,-0.08489022101357524,-1.485947850514118,12.990858685548995
1777262894.4522488,-0.1734796385,-0.0095712904,9.7950193131,0.17226399717184032,-0.10170906215996955,0.36041049053682905,-0.06642990248043702,-1.4968472939033644,13.029481337799178
1777262894.5547643,-0.5802594805,-0.7094719009,10.0067841132,-0.07467827536970736,-0.13820826014230098,-0.6505714786808863,-0.07408558016182162,-1.5110157771378288,12.96278770401043
1777262894.6591036,-0.095712904,0.5934200048,9.5150590689,-0.29031370445360677,-0.15378532371635034,-0.4317290070964473,-0.10437672662944447,-1.5270616395749126,12.91774137520245
1777262894.7614968,0.8817551281,0.2560320182,9.5054877785,-0.5039638215133626,-0.21685715956029547,-0.34666602267737373,-0.1559791699663368,-1.5492663273138179,12.882245149028284
1777262894.8632674,-0.0299102825,-0.7633104094,10.1838529856,-0.1189660051390635,-0.011911872144861299,0.238542875516325,-0.16808641637852942,-1.5504786061586844,12.90652180999856
1777262894.9647727,-0.7884350467,0.5060819799,10.450652705500001,-0.47296241067481337,0.05192354524683131,1.2556334971160203,-0.21609459808646897,-1.5452080921836442,13.033975239124384
1777262895.066056,1.1868400096,0.24047867129999997,10.0319087505,0.11514809740032589,0.06826419036862821,-0.279165413856493,-0.20443201742924322,-1.5382940689027689,13.005700441456733
1777262895.1680198,0.1304088317,0.9236295236,10.420742422999998,-0.24862215194659223,0.024434609527920613,0.34330626386728463,-0.22978246648027606,-1.5358026242785887,13.040705238426463
1777262895.2691777,-0.1734796385,-0.045463629400000004,9.4480600361,0.27305676147451285,-0.04627304179349966,1.165989023410462,-0.2021606169062498,-1.540483508182912,13.15865424373837
1777262895.3707,0.21296121140000002,-0.059820565,9.5533442305,-0.2542726553999239,-0.04550946024575214,0.3688098875620518,-0.22797493812834496,-1.545103729038278,13.19609663758303
1777262895.4723446,-0.9738787981999999,-0.0646062102,11.3312114223,0.31719177493431944,-0.04871650274629172,3.3003521656743273,-0.19573405806434066,-1.5500555059956287,13.531560122928816
1777262895.5752509,-1.962114532,-0.37567314820000003,9.7423772159,0.025350907385217634,-0.14278974942878608,2.4385740308864774,-0.19312529183146682,-1.5647494603795866,13.782504575980198
1777262895.6763074,-0.5659025448999999,0.3505485109,9.6514499571,-0.14645494085797417,-0.007483099167925688,3.152064629101759,-0.20792552665992528,-1.565505676757683,14.101041434019178
1777262895.7777748,-0.9523433948,-0.969093153,10.922038757700001,-0.21563542908389943,-0.023823744289722597,1.9297232874675305,-0.22980548674070897,-1.5679230094578263,14.296845382730782
1777262895.8789296,-0.9236295236,-0.4725824635,9.5150590689,0.3636175330373686,-0.16004669240788003,0.9017898078898202,-0.19302382637181426,-1.5841125012959623,14.388065754204248
1777262895.9805179,0.047856452,-0.5539384319,11.6374927151,-0.12782355109293472,-0.08659014751456867,1.3665055378489603,-0.20600919713470858,-1.5929090427805035,14.52688665932537
1777262896.083086,-1.0037890807,-0.2584248408,9.8368937086,0.15027284859671178,0.0198531202414355,1.0557278479157202,-0.19059598912403444,-1.5908727449742153,14.635170711132067
1777262896.1855242,-0.5539384319,-0.12323036389999999,8.673981925,-0.11224648751888533,-0.25366179016172585,0.0022907446432425577,-0.20209431854600807,-1.616857405069315,14.635405370916189
1777262896.2865007,-0.8638089586000001,0.5551348432,9.646664311899999,-0.24220806694551308,0.06398813370124211,0.937219991705305,-0.22655163345717458,-1.6103961093897572,14.730042534604605
1777262896.3879414,0.5324030285,-0.0346959277,10.394421374399998,0.020463985479633514,0.08246680715673206,-0.9027061057471172,-0.22447575309800746,-1.6020306213752031,14.638471424134181
1777262896.488966,0.7585247642,0.2596212521,11.2055882358,0.12049316823455852,-0.1311833099030238,-0.5329799203277684,-0.21230297563845923,-1.6152833664167139,14.584627326119197
1777262896.5900636,-0.6185446421,-0.7585247642,11.0488583555,0.23319780468209236,-0.18157969205436006,0.10094548061222204,-0.18872724104445596,-1.633640634545247,14.59483267030167
1777262896.6940396,0.9343972253,1.1341979124,10.222138147199999,0.04077525464971753,0.05513058774737088,0.22052235098948353,-0.18448759270720516,-1.6279083759319604,14.617761704754818
1777262896.795022,-0.6149554081999999,-0.17228322719999997,9.688538707400001,-0.20143281229579554,-0.08139779298988555,0.5687155367623523,-0.20482876709053466,-1.6361281226691209,14.675191980269236
1777262896.8961275,0.1591227029,0.3050848815,10.4733845202,-0.46975536817427377,0.06490443155853913,-0.3750712562535814,-0.2523235957237381,-1.6295659308066008,14.637270231529591
1777262896.9972987,-0.909272588,-0.5359922624,10.0510513313,0.01069014166846527,-0.027183503099811684,0.7041749033327621,-0.2512420606738176,-1.6323161199335414,14.708512490317922
1777262897.09841,-0.0023928226,0.7322037156,10.4662060524,0.26465736444929017,0.02626720524251466,1.2441797738998077,-0.22448224394459054,-1.6296602119834969,14.834312967463342
1777262897.199589,-0.5395814963,-1.2191431147,9.5270231819,-0.05467243881872237,-0.1351539339513109,-0.09269879989654883,-0.2300139533524289,-1.6433349684805274,14.824933784193627
1777262897.3009126,-1.2861421475,-0.1256231865,10.1611211709,0.28878654135811177,0.08384125394267761,1.6569719586121165,-0.20075306002675364,-1.6348398704182345,14.992824155734386
1777262897.4019191,-0.10289137179999999,0.5491527867,10.5930256502,-0.05100724738953428,-0.10079276430267253,0.5076290129425508,-0.205905123961812,-1.6450205955593677,15.044097989627003
1777262897.5030878,-0.48335016519999996,-0.1710868159,10.5116696818,-0.2739730593318099,-0.04092797095926703,0.17165313193364232,-0.2336226037182592,-1.6491612224126162,15.06146390225033
1777262897.604223,-1.0396814197,0.39960137419999997,11.3312114223,0.079412480965742,0.04444044607890562,0.9932668773099729,-0.22559120229246363,-1.644666726614719,15.161918200083742
1777262897.7053638,-0.2775674216,0.020338992099999998,8.97308475,0.04352414822160859,-0.12629638799743967,-0.6165157416513469,-0.22118913784080974,-1.6574404364446058,15.099563343272068
1777262897.8064604,-0.3050848815,0.3768695595,9.6406822554,0.15821409669328595,0.029321531433504737,0.006108652381980153,-0.20519422583136693,-1.6544761284274119,15.100180907442317
1777262897.9075372,-0.0490528633,-0.9762716208,10.079765202499999,0.06566801310628666,-0.09605855870663792,0.45707991448166496,-0.1985567104885661,-1.6641854241265321,15.14638110144465
1777262898.0102952,-0.7788637562999999,0.43788653580000003,9.5820581017,0.3231477110067501,0.029474247743054238,0.45570546769571946,-0.16535072037709891,-1.6611567114178776,15.193208452339082
1777262898.1130137,0.059820565,-0.33858439789999994,9.1585285015,0.6064364652210797,-0.06093380751025203,0.011759155835311794,-0.10305842072008944,-1.6674157463116441,15.194416336265949
1777262898.2145452,-1.1246266219999999,-0.6568298037,9.042476605400001,-0.18952094015093426,-0.10873401239924674,0.3275764839836857,-0.1223007671134448,-1.6784556742988068,15.22767566987896
1777262898.315595,0.1004985492,-0.1483550012,11.059626057200001,0.18096882681616205,0.05390885727097486,-0.3631593841087201,-0.10401392839694394,-1.6730082025123725,15.190978536994708
1777262898.4174683,-0.7716852885,-0.3002992363,9.7495556837,0.05299255941367783,-0.024587325837470118,-0.04413501345980661,-0.09861539630991555,-1.6755129969389189,15.18648235321041
1777262898.5184443,-0.32901310749999996,0.011964113,10.3346008094,0.2739730593318099,0.047494772269895694,-0.6983716835698811,-0.07095069532962288,-1.6707171652751112,15.11596358086767
1777262898.6205115,-0.1052841944,0.0646062102,10.0175518149,-0.03558290012503439,-0.08414668656177661,0.1362229481181574,-0.07458254345661304,-1.679305784665547,15.129867480134944
1777262898.7226553,1.1425727915,0.1842473402,11.0919291623,-0.6085744935547728,-0.024434609527920613,-0.9755517854022305,-0.13674463320445268,-1.681801627666715,15.030220948313314
1777262898.8261576,0.1399801221,-0.1220339526,9.2039921309,0.5966626214099116,-0.05696318346196493,-0.14401147990518212,-0.07498869534051368,-1.6876974466642192,15.01531543272445
1777262898.928,0.8602197247000001,0.0789631458,10.0929257268,-0.1472185224057217,-0.05329799203277684,-1.6615534478986018,-0.08998178348905592,-1.6931254422698636,14.846098836193184
1777262899.0293972,0.0394815729,0.311066938,10.419546011700001,-0.017715091907742442,-0.0007635815477475192,2.9504791004964144,-0.09177804555125639,-1.6932028673587516,15.145269379656227
1777262899.1305852,-0.6245266986,0.011964113,10.9136638786,0.030390545600351263,-0.011453723216212788,3.482084574038237,-0.08870288871239067,-1.6943618460668668,15.497614359972697
1777262899.2338946,-0.24646072779999997,0.442672181,9.3176512044,-0.30390545600351265,-0.06765332513043021,2.165364553102415,-0.12009917687994792,-1.701351070015725,15.72131685742385
1777262899.3358662,-0.3984049629,0.23688943739999999,9.3643112451,0.04092797095926703,-0.02107485071783153,1.955990492710045,-0.1159256851208197,-1.7035001068170672,15.920772388957113
1777262899.437254,-0.3242274623,0.3816552047,9.8297152408,-0.33185254065107184,-0.0006108652381980154,1.1695014985301002,-0.14957146395907486,-1.7035620410625127,16.039345501862478
1777262899.5415196,-0.0299102825,-0.062213387599999996,10.439885003799999,0.1912008195559788,-0.004886921905584123,1.1038334854238137,-0.12963577860821338,-1.7040715793462409,16.15443746169956
1777262899.642473,-0.0705882667,0.7752745223999999,9.3738825355,0.3113885551714383,0.006261368691529657,1.5274685281141374,-0.09820006376072332,-1.7034394732605385,16.308640512167727
1777262899.751105,0.3050848815,-0.7740781111,11.0165552504,-0.29153543493000283,-0.08704829644321718,-0.318871654339364,-0.12987016669788926,-1.7128957114345482,16.27400081864609
1777262899.8559852,-0.0251246373,-0.12681959780000002,9.1944208405,0.6024658411727926,-0.140346288475994,-0.26374106659199315,-0.0666834923256763,-1.7276152434365923,16.246339630650954
1777262899.9570234,0.4295116567,0.6592226263,9.1369930981,0.2852740662384731,-0.07009678608322227,1.5141822091833304,-0.03785990916125347,-1.734697697758043,16.399329902104515
1777262900.0616734,0.47377887479999997,0.6843472636,10.4159567778,0.16707164264715718,-0.08536841703817265,-0.3092505268377453,-0.020375858316658686,-1.743631504359623,16.36696682810058
1777262900.1626775,0.6125625856,-0.4606183505,10.5367943191,0.2623666198060476,-0.07406741013150937,-0.4734205596034619,0.006124252201766687,-1.751112618213777,16.31914939934207
1777262900.2643623,-0.7752745223999999,0.1639083481,10.667203150799999,-0.15485433788319689,0.07712173632249944,0.5470298208063228,-0.009622081527064084,-1.743270509206815,16.374774022040956
1777262900.3655655,1.1856435983,0.2703889538,9.8668039911,-0.10919216132789523,-0.06475171524898962,0.4068362486398782,-0.020672678017919534,-1.7498235902027908,16.41594715358171
1777262900.4743884,-0.33858439789999994,-0.8231309743999999,11.3694965839,-0.18463401824535014,-0.05543602036646989,-0.5893322385515353,-0.04076507302596727,-1.7558562944111624,16.351814355950562
1777262900.576543,-0.287138712,-0.0011964113,10.163513993499999,0.3646865472042152,0.11423179954302887,-0.5099197575857933,-0.003510616623308885,-1.7441869755714687,16.29972363990011
1777262900.6775734,-0.3852444386,-0.9726823869,9.5210411254,-0.30192014397936906,-0.07131851655961828,1.1821769522227092,-0.03401371436051286,-1.7513923102418147,16.419159390827627
1777262900.77855,-0.48693939909999995,-0.0047856452,9.2877409219,0.26954428635487426,0.05482515512827187,-1.4526375364348805,-0.006796084588628307,-1.745856259766967,16.272477184374274
1777262900.8796878,-0.7334001269,-0.48335016519999996,9.964909717700001,-0.39125918506582885,-0.09926560120717749,1.271515993309169,-0.04636720773146197,-1.7558957718836108,16.401075611886856
1777262900.980845,0.5060819799,0.40319060809999996,9.8620183459,0.2306016274197508,-0.13820826014230098,1.5412129959735927,-0.023040195457635,-1.7698765308954076,16.556980385309018
1777262901.0822158,-0.6005984726,0.7094719009,10.3453685111,-0.2707660168312703,0.027336219409361186,1.5357152088298105,-0.05048796630026336,-1.7671054361515663,16.712657082203247
1777262901.1834242,-0.34815568830000004,0.8039883936,10.0079805245,-0.1035416578745636,0.1351539339513109,1.4379767707181281,-0.06096725683955054,-1.753426716199842,16.8581924800173
1777262901.2845023,-1.052841944,-0.4462614149,9.0867438235,0.061086523819801536,-0.09697485656393494,0.24984388242298827,-0.05479275114171545,-1.7632287439951553,16.88344620832145
1777262901.3886364,0.12323036389999999,-0.8590233134,10.8981105317,-0.006566801310628665,-0.06001750965295501,0.02703078679026218,-0.05547657897308945,-1.7694786123144572,16.886261034511058
1777262901.4899468,0.49292145559999995,0.9487541609,9.6837530622,-0.2735149104031614,-0.12568552275924166,-0.07086036763096977,-0.08318650899553993,-1.7822118744074091,16.879082135834107
1777262901.591046,-0.5922235935,-0.6628118601999999,9.562915520899999,-0.2817615911188346,-0.14889840181076625,0.14263703311923656,-0.11167239529744408,-1.797265391558822,16.893502633289923
1777262901.6920786,-0.3732803256,0.2237289131,10.2592268975,0.037110063220529434,0.03955352417332149,1.3999504096403017,-0.10792307300216106,-1.7932692003058248,17.03494311675025
1777262901.7930295,-0.5156532703,-0.4271188341,9.420542576199999,-0.10399980680321212,-0.050396382151336266,0.16798794050445423,-0.11842195295859942,-1.7983567632803104,17.051901659998535
1777262901.8941028,-0.729810893,-0.4618147618,9.5437729401,-0.07849618310844496,-0.1032362252554646,-0.7967209869197615,-0.12635581848134866,-1.8087911856409689,16.971374468496233
1777262901.9954145,-0.5850451257,-0.17587246110000002,10.094122138100001,-0.28145615849973554,-0.00916297857297023,0.02580905631386615,-0.15487061577396494,-1.8097195024274892,16.97398922744493
1777262902.0964704,0.1603191142,0.8315058535,10.4913306897,0.03252857393404432,-0.12278391287780109,-0.5451972250917287,-0.15158341274359086,-1.8221275364012957,16.918893852710493
1777262902.1975935,-0.023928226,0.8709874264,10.552347666,0.10415252311276162,-0.14920383442986526,-0.7841982495367021,-0.14105118730033023,-1.83721548985887,16.839593298969813
1777262902.2986684,0.5790630692000001,0.2847458894,10.5930256502,0.16630806109940968,0.07681630370340044,-0.012217304763960306,-0.12424161100008527,-1.829451287031484,16.838358435697067
1777262902.4004288,0.6149554081999999,-0.7034898444000001,9.9720881855,-0.14996741597761276,-0.022449297503777062,0.4616614037681501,-0.13950235335044156,-1.83173573624279,16.88533727900168
1777262902.5040658,0.143569356,0.2548356069,9.1034935817,0.36041049053682905,-0.16355916752751862,-0.01038470904936626,-0.10215049853042815,-1.8486865144259401,16.884261039117035
1777262902.6050954,-1.0468598875,-1.0456634762,10.5690974242,-0.3304780938651263,-0.08933904108645975,2.7259861254586433,-0.13553857955585058,-1.8577124050913154,17.159666420957972
1777262902.707964,-0.5910271822000001,-0.6687939167,9.7842516114,0.14462234514338015,-0.07299839596466283,1.596801732649612,-0.12066148760442,-1.8652216447457861,17.32392711097292
1777262902.8110669,-0.8829515394,0.251246373,10.7007026672,-0.5140430979436299,0.13881912538049898,1.9569067905673423,-0.17366083326230103,-1.850908987228551,17.525689920022263
1777262902.9127018,-0.6137589969,0.39960137419999997,10.163513993499999,0.36071592315592804,0.05375614096142535,2.3379339828933543,-0.1369994778979082,-1.8454454829574813,17.763305791856933
1777262903.0141406,-0.7728816998,-0.4366901245,10.699506255900001,-0.1798998126493155,0.06444628262989062,1.1537717186465015,-0.15524829195355153,-1.838908131912081,17.880342965193424
1777262903.1158602,-0.71784678,-0.6161518195,8.7242311996,0.020616701789183015,-0.14141530264284052,0.7657195760812122,-0.1531511689263598,-1.8532928424541517,17.95823166784779
1777262903.2181861,-0.5647061336,0.5455635528,10.1013006059,0.7385360729814006,-0.07086036763096977,1.370934310825896,-0.07757978854511052,-1.860543694500657,18.098513777376837
1777262903.3195684,-0.3553341561,0.39361931769999997,10.4949199236,0.22098049991813207,-0.12186761502050406,0.6186537699850401,-0.055176287029915755,-1.8728989081904466,18.16123429198503
1777262903.4215827,-0.4390829471,-0.4163511324,10.0331051618,0.4137084825696059,-0.14920383442986526,-0.16982053621904827,-0.01297210444958767,-1.8881198333956812,18.143910168312335
1777262903.5232987,0.31704899449999996,-0.3816552047,9.2279203569,-0.0678060414399797,-0.004581489286485115,0.2587014283768595,-0.019869066579050784,-1.8885858443503747,18.170224253554025
1777262903.62439,-0.0059820565,-0.27517459899999996,10.7485591192,-0.035735616434583894,0.04505131131710363,1.2657127735462876,-0.023481621014203462,-1.8840315556393916,18.298176608932422
1777262903.725746,-0.4079762533,-0.47138605219999996,9.9278209674,-0.06093380751025203,-0.007788531787024695,-0.8869763258635183,-0.029657629806399573,-1.8848209702970407,18.208276210273088
1777262903.8270123,-0.1459621786,-1.1246266219999999,9.6095755616,-0.05314527572322733,-0.02199114857512855,-0.7157813428585245,-0.03503945971220397,-1.8870479343959943,18.13579162185784
1777262903.9285307,-0.1866401628,-0.4510470601,10.133603711,-0.4830416871050806,-0.10766499823240021,-0.3617849373227746,-0.08407707532796674,-1.8979779119518314,18.099063796567375
1777262904.0298476,-0.17706887240000002,-0.789631458,10.747362707899999,-0.5873469265273918,0.04612032548395016,-0.7072292295237523,-0.14358526210115277,-1.8933051422156113,18.02740950302951
1777262904.131039,0.0,-0.0669990328,10.9040925882,0.537408693304704,-0.007330382858376184,-0.478307481509046,-0.08920418732134769,-1.8940469130565976,17.979008955655157
1777262904.2326171,-0.20338992099999997,-0.5359922624,10.2197453246,-0.06704245989223219,-0.0016798794050445422,0.5090034597284963,-0.0960142421092423,-1.8942175522426268,18.03071262902202
1777262904.3337805,-0.5347958510999999,-2.2959132847,9.2039921309,0.6313292236776489,-0.05192354524683131,-0.5210680481829071,-0.03214683934142594,-1.8994703139603475,17.977999620254774
1777262904.4353192,0.9990034355,0.6436692794,9.6598248362,-0.3802636107782646,-0.11667526049582093,-0.5326744877086693,-0.07075829612011686,-1.911317363349472,17.92391256754631
1777262904.5438454,-0.4510470601,-0.6400800455,9.8297152408,0.24740042147019622,0.009621127501618741,0.5981897845054065,-0.04390886111257769,-1.9102732186547344,17.98883184959849
1777262904.6452575,0.370887503,0.8877371846000001,9.710074110799999,-0.6293439116535053,-0.10781771454194972,-0.51709742413462,-0.10773192230546058,-1.921207234961984,17.936391935694317
1777262904.7464693,-0.7561319416,-0.7334001269,9.6957171752,0.6290384790344062,-0.011606439525762293,0.893237694555048,-0.04406581420973531,-1.9223819434386227,18.026798118324056
1777262904.8513148,-1.3160524299999998,-0.4845465765,10.066604678200001,0.45540003507662047,0.040011673101970006,1.7739526517270365,0.003680841021999004,-1.9181868986127628,18.212789113351494
1777262904.9547572,-0.5180460929,-0.9930213789999999,9.7040920543,-0.20967949301146876,-0.11087204073293978,0.2309070600388498,-0.018008915360321624,-1.9296557719802536,18.23667470086065
1777262905.0557714,-0.5635097223,0.39361931769999997,9.4289174553,0.2530509249235278,0.0160352125026979,1.5274685281141374,0.007552805505714782,-1.9280359888233836,18.390970616432224
1777262905.1572032,-0.0981057266,0.3888336725,10.088140081599999,-0.1357647991895089,0.05299255941367783,0.06123924012935104,-0.006218068781887621,-1.9226608556650056,18.397182225644066
1777262905.2588563,-0.0897308475,-0.6975077879,9.6969135865,-0.2808452932615375,-0.12904528156933073,1.3014483899808715,-0.0347668631983539,-1.935778708455606,18.529478487752346
1777262905.3616931,-0.2727817764,-0.3529413335,9.274580397600001,0.18142697574481054,-0.1718058482431918,0.40759983018762574,-0.01610948499662284,-1.9534466802375483,18.571394769251015
1777262905.4672635,0.3684946804,-0.0059820565,11.0955183962,-0.5122105022290359,0.024587325837470118,1.2072224269888279,-0.07018370973665211,-1.9508509884715541,18.69884162273042
1777262905.5684538,-0.3888336725,0.010767701699999998,9.7663054419,-0.044898595007554123,-0.06887505560682623,0.6485861666567428,-0.07472701331905604,-1.9578204779806159,18.764472270058548
1777262905.6699567,-0.9080761767,-0.7130611348,11.2008025906,0.3321579732701708,0.014508049407202865,0.48487428281967465,-0.041012017316810395,-1.9563478689598282,18.813688413648034
1777262905.7710347,0.0526420972,-0.346959277,9.128618219,-0.14095715371419204,-0.07773260156069746,-0.30039298088387406,-0.05525968921456486,-1.9642049274603233,18.78332528187893
1777262905.8726785,-0.7393821834000001,0.10648060570000001,10.2197453246,-0.050396382151336266,-0.047952921198544204,0.2499965987325378,-0.06038216903974406,-1.9690790446273119,18.808735886345048
1777262905.9739642,0.6640082715,-0.4462614149,10.1024970172,0.28878654135811177,-0.09453139561114288,-0.42271874483302657,-0.031132223194288627,-1.978653722828442,18.76592052404985
1777262906.0758088,-0.6245266986,0.9655039191,10.241280728,0.16569719586121168,0.05253441048502932,0.49724430389318447,-0.014256866981566276,-1.9733033794762056,18.816562146011716
1777262906.1767824,-0.7609175868,-0.7154539574000001,9.9924271776,0.038331793696925465,-0.11071932442339028,1.0109819692177153,-0.010386367543337743,-1.984483108929256,18.91864464115543
1777262906.278447,-0.2907279459,0.1782652837,10.2616197201,-0.31001410838549276,-0.030085112981252254,1.5544993149043995,-0.04190381024297867,-1.987541698196167,19.076682103835058
1777262906.3803968,-0.5156532703,0.035892339,10.5475620208,-0.7470881863161728,0.014813482026301871,1.76677498517821,-0.1180693986844632,-1.9860314647376993,19.256804690237253
1777262906.4818277,-0.6496513358999999,0.6795616184,9.6406822554,-0.3190243706489135,0.08552113334772216,1.0271698980299628,-0.1504283254703873,-1.9773569798166282,19.360991450199975
1777262906.5857756,-0.3337987527,-0.24167508259999998,10.3692967371,0.23884830813542401,0.02229658119422756,0.6508769112999853,-0.12560055070354745,-1.9750392975174218,19.428648723893243
1777262906.6868567,0.12323036389999999,0.1962114532,10.7653088774,0.2544253717094734,-0.1282817000215832,0.8770497657428005,-0.09988294589550137,-1.9880061570845038,19.517301907814378
1777262906.788732,-1.2299108163999999,-1.3411770673,9.6418786667,-0.23197607420569633,0.06719517620178168,-0.5061018498470556,-0.12351557924868636,-1.9811606280026068,19.46574262741118
1777262906.889844,-0.49770710079999997,-0.4534398827,9.8476614103,-0.08674286382411818,-0.1230893454969001,2.3962716131412645,-0.1322863140572805,-1.993606424227478,19.708034176498593
1777262906.9912183,-0.47138605219999996,0.0705882667,9.207581364800001,-0.36071592315592804,0.08704829644321718,2.065640802966589,-0.16885366991567435,-1.984781956471642,19.917437248192343
1777262907.0924277,-0.9678967417,-0.3038884702,9.8871429832,0.02183843226557905,0.040622538340168025,3.566078544290464,-0.1666434152436155,-1.980670573655085,20.27835792544581
1777262907.1939092,-1.1796615418,-0.8697910151,11.0105731939,-0.6714936130891684,0.04428772976935611,1.7954856513735167,-0.23478755249492728,-1.9761761911663698,20.460566390686584
1777262907.294997,0.131605243,0.015553346899999999,10.9340028707,0.30833422898044827,-0.06551529679673715,1.2612840005693522,-0.20361872096814543,-1.9827989889499207,20.588066826337744
1777262907.3969672,-0.48693939909999995,-0.7310073043,9.7351987481,0.239153740754523,-0.1232420618064496,0.1823432736021076,-0.17923216720421584,-1.9953660061194554,20.60666040564434
1777262907.5000854,-0.1304088317,-0.3792623821,10.313065405999998,-0.09651670763528643,-0.17302757871958785,0.3820962064928586,-0.18918479455374274,-2.0132082953394144,20.646061471512247
1777262907.6016657,0.11844471869999999,0.2859423007,10.3585290354,0.671340896779619,-0.037262779530078935,0.5813909904549611,-0.12098973021385996,-2.016993462695859,20.70511939006137
1777262907.703269,-0.4462614149,-0.191425808,9.3906322937,0.09621127501618743,-0.14645494085797417,0.5068654313948032,-0.11121435010204085,-2.0318737635327393,20.75661857512665
1777262907.805094,1.1581261384000001,1.0157531937,10.3453685111,-0.08155050929943505,0.005955936072430649,1.8854355576981745,-0.11951823061812868,-2.03126730034898,20.948603048631558
1777262907.9071603,-0.574277424,-1.3962119871,10.3405828659,-0.16172657181292455,0.014660765716752368,-0.4260785036431157,-0.1360250599307864,-2.0297709305529317,20.905114801433903
1777262908.0082211,-0.5623133109999999,-0.5036891573,10.5786687146,-0.014966198335851376,-0.13377948716536536,0.19654589039021145,-0.13753755691493458,-2.043290801554093,20.92497789958287
1777262908.11156,1.1078768638,0.0693918554,10.205388389000001,0.3405573702953935,-0.13332133823671685,-1.2907582483124065,-0.10234471352685783,-2.0570680895710396,20.791592288678824
1777262908.2136748,0.2285145583,-0.6137589969,9.9038927414,-0.28588493147667116,-0.1792889474111175,-1.4265230475019153,-0.1315377610864668,-2.0753761226025467,20.645923347837847
1777262908.3153718,0.191425808,0.8542376682,10.524830206099999,-0.12049316823455852,-0.07055493501187078,-0.7189883853590641,-0.14379155097010768,-2.0825513455762374,20.572804408963094
1777262908.4170506,0.1423729447,-0.044267218100000005,10.4111711326,0.1960877414615629,0.008246680715673207,-0.06856962298772722,-0.12385357525909682,-2.0817128325790453,20.565832328671625
1777262908.5186284,-0.8159525066,-1.3603196481,9.7112705221,0.0022907446432425577,0.014049900478554353,-0.3793473129209675,-0.1236208865522782,-2.0802856751772243,20.52729907882246
1777262908.6196938,0.21415762270000002,0.0729810893,9.5688975774,0.09010262263420726,-0.05589416929511841,-0.0070249502392771765,-0.11451462920135232,-2.085934641601697,20.52658909943578
1777262908.7212489,-0.3840480273,-0.1854437515,10.778469401699999,0.12660182061653869,-0.18157969205436006,0.9468411192069238,-0.10165756750599678,-2.1043749870248307,20.62274565252529
1777262908.822286,-0.2021935097,-0.6652046827999999,10.444670648999999,-0.4946481266308429,-0.12034045192500901,0.5874996428369413,-0.15163534286601327,-2.116533828328842,20.682104868891447
1777262908.923834,-1.0336993632,-0.0047856452,9.643075077999999,0.257326981590914,0.08323038870447959,0.6575964289201636,-0.12550425239018498,-2.108081932596304,20.748882599211278
1777262909.0252285,-0.7908278692999999,-0.39122649509999996,10.1383893562,-0.3231477110067501,-0.12980886311707826,-0.4437935955508581,-0.15826962547454884,-2.1212438263211193,20.703884407253263
1777262909.126275,-0.3960121403,-0.6496513358999999,10.6384892796,-0.21426098229795387,-0.16630806109940968,-0.2513710455184833,-0.17991996114824316,-2.1380486841605015,20.678484227268303
1777262909.2281387,-0.1974078645,0.2524427843,10.565508190300001,-0.04184426881656405,0.006414085001079161,-0.7742716894159843,-0.18418236995768342,-2.1373953222262077,20.59961410805713
1777262909.3293207,-0.2679961312,0.48335016519999996,9.3379901965,-0.21212295396426084,-0.022449297503777062,-0.4309654255486998,-0.2056453912806454,-2.139666786685873,20.556008171287225
1777262909.4373302,-0.2021935097,-0.24287149389999999,10.1120683076,0.0679587577495292,0.03665191429188092,0.3781255824445715,-0.19830519461643592,-2.1357080289343893,20.596849355423366
1777262909.5389762,-1.0325029519,0.0981057266,9.3044906801,-0.34529157589142817,0.047036623341247176,1.1679743354346053,-0.23340268366732403,-2.130926946834578,20.715569212239462
1777262909.6403592,0.131605243,-0.32542387359999997,9.3164547931,0.09346238144429636,-0.1863138976503947,-0.45341472305247693,-0.2239271897775298,-2.149816003281553,20.669600680607438
1777262909.7420726,0.5647061336,-0.33140593009999997,10.2640125427,-0.026572637861613665,-0.07849618310844496,-0.1910481032464293,-0.22662998362523565,-2.157800118440868,20.65016852484031
1777262909.843402,-0.2500499617,0.3050848815,9.5976114486,-0.08109236037078654,0.011453723216212788,0.620180933080535,-0.23484701789641543,-2.156639520379967,20.713011041177904
1777262909.9450095,0.7525427077,0.5359922624,9.8297152408,-0.08979719001510825,0.03787364476827695,0.9850201965942997,-0.24397109136851206,-2.1527912717046607,20.81309654099937
1777262910.0469382,-1.6701901747999999,-0.6041877065,10.2975120591,-0.6238461245097231,-0.058948495486108476,0.7110471372624899,-0.3075589226631433,-2.158799815861265,20.885572659116338
1777262910.147909,-0.21894326790000002,-0.1256231865,11.184052832399999,0.4744895737703084,-0.04153883619746504,2.6681066441393817,-0.2596493568636988,-2.162994023102156,21.154973374945786
1777262910.2490602,-1.0265208954,-0.6963113766000001,9.1142612834,-0.3242167251735967,-0.22968532956245377,1.1168143717355217,-0.29244427673727613,-2.1862269762297397,21.267940520040213
1777262910.3502367,-0.6580262149999999,-0.5611168997,10.5427763756,0.3118467041000868,0.014813482026301871,2.8093692304726727,-0.2608927185799672,-2.184728199960759,21.55218266688735
1777262910.4512534,-0.1411765334,-0.8303094421999999,9.1441715659,-0.2423607832550626,-0.14538592669112765,1.5850425768143002,-0.2853752196245395,-2.1994146152061482,21.712298532256987
1777262910.552252,-0.3661018578,-0.4414757697,10.3214402851,0.08307767239493008,-0.02748893571891069,2.3576343868252403,-0.27698448769326606,-2.2021909603304666,21.95041639908603
1777262910.6540415,-1.9022939669999999,0.5036891573,9.7782695549,-0.1725694297909393,-0.050243665841786765,2.0854939232080243,-0.2945502392642596,-2.2073052366728176,22.162697729575843
1777262910.757324,0.5419743189,0.40558343069999997,9.108279226899999,0.16111570657472654,-0.006719517620178169,0.10735956561330119,-0.27790981409318033,-2.2079992449263983,22.173786088718277
1777262910.858362,0.2691925425,0.1483550012,8.2731841395,0.1282817000215832,-0.048411070127192715,0.5215261971115556,-0.2649484903641548,-2.212890601619376,22.226480041735684
1777262910.9593167,-0.40917266459999996,-0.8219345630999999,10.079765202499999,-0.2151772801552509,-0.10690141668465268,0.4338670354301404,-0.2866716634156405,-2.2236828096648265,22.27028098896015
1777262911.0604289,0.47976093129999997,-0.0873380249,10.0199446375,0.33414328529431436,0.017256942979093935,0.30986139207594326,-0.2528857250151592,-2.221937923449445,22.30161173348235
1777262911.1615105,-0.1782652837,-0.2739781877,9.371489712899999,-0.0079412480965742,-0.10888672870879623,0.3853032489933982,-0.2536884391559941,-2.232944369265123,22.34055880612324
1777262911.2625678,-0.5599204884,-0.42831524540000004,11.2773729138,0.38423423482655167,-0.012675453692608817,1.0937542089935464,-0.21485876826309833,-2.2342253162778856,22.451090643537757
1777262911.3637598,-0.1890329854,0.08374879099999999,10.222138147199999,-0.09300423251564784,-0.023976460599272102,0.16936238729039974,-0.2242700523299224,-2.236651542219579,22.468228761813798
1777262911.466339,-0.2883351233,0.3553341561,8.8127656358,0.1950187272947164,-0.007330382858376184,0.5157229773486744,-0.2042651570243307,-2.2374034881668527,22.52113129231261
1777262911.5673826,-0.48693939909999995,0.1974078645,9.906285564,-0.21120665610696382,-0.15577063574049393,-1.1453723216212788,-0.22560620891392288,-2.253143092597355,22.405398906794215
1777262911.671032,0.3182454058,-0.2213360905,10.097711372000001,-0.0478002048889947,-0.0033597588100890844,-0.34574972482007665,-0.23056067041047318,-2.2534913295076553,22.369562162934184
1777262911.772119,-0.5120640364,0.40558343069999997,9.7842516114,0.2154827127743499,0.12599095537834065,0.757778327984638,-0.2087781493082363,-2.240755270039657,22.446163771516254
1777262911.873485,-0.0370887503,-1.8927226765999998,10.6492569813,-0.24831671932749322,-0.040622538340168025,0.6742425066610594,-0.2339490325797581,-2.2448730160115047,22.51450906650012
1777262911.9749234,0.7800601676,0.47138605219999996,10.803594039,0.011301006906663283,-0.18891007491273626,0.5713117140246938,-0.23280267783257486,-2.2640357298259057,22.572461946354345
1777262912.076364,-1.0121639598,-0.9678967417,10.0725867347,0.18646661395994418,-0.10293079263636558,1.096961251494086,-0.21388737993299978,-2.2744770981996267,22.683738428592385
1777262912.177846,-0.3014956476,-0.9738787981999999,10.7102739576,0.04092797095926703,-0.09697485656393494,-0.22281309563272608,-0.20973393108262361,-2.284318292304063,22.66112692906739
1777262912.2793827,0.2440679052,0.9631110964999999,9.5617191096,0.10399980680321212,-0.05329799203277684,-0.539241289019298,-0.1991741286166782,-2.289729997238887,22.606374120686695
1777262912.380832,0.34576286570000003,0.37567314820000003,9.8500542329,-0.21074850717831528,-0.10231992739816757,0.1760819049105779,-0.22055440685615196,-2.300110277253704,22.62423749808533
1777262912.4818332,-0.2440679052,0.5240281494,10.0821580251,-0.03405573702953935,0.061850105367549056,-0.02153299964648004,-0.22399407929711565,-2.293863338515631,22.622062637932075
1777262912.5835214,0.2644068973,0.6317051664,10.0103733471,-0.10690141668465268,0.058643062867009474,-0.16798794050445423,-0.2348646862277501,-2.2879000341422544,22.604980255612507
1777262912.685182,-0.107677017,0.1519442351,9.8153583052,-0.17715091907742445,-0.08063421144213803,0.4471533543609473,-0.2528739777075612,-2.2960973668158235,22.650438191347753
1777262912.7870355,0.3780659708,0.42831524540000004,10.360921858,0.17211128086229083,-0.09789115442123195,0.1314887425221228,-0.23534386362200754,-2.3060679108520614,22.663830762978332
1777262912.8885062,-0.3361915753,0.1136590735,10.0199446375,-0.2745839245700079,0.001069014166846527,0.2871066619530672,-0.26320608908613,-2.3059594372267838,22.69296367948142
1777262912.990166,-0.2715853651,0.7190431913,11.144571259500001,-0.39125918506582885,0.10506882097005864,-0.5062545661566052,-0.30298140972063553,-2.2952781645505387,22.641497954304455
1777262913.091567,-0.5647061336,0.7166503687,9.798608546999999,0.34895676732061626,-0.079412480965742,-0.24129176908821603,-0.2675968129344156,-2.3033306767294595,22.61703070576081
1777262913.1932454,0.0945164927,1.5481562222,9.1872423727,0.09407324668249435,0.003817907738737596,0.5972734866481094,-0.2580315984166593,-2.3029424780883168,22.677760501181176
1777262913.294702,0.179461695,-0.5395814963,10.462616818499999,0.06979135346412325,-0.11392636692392986,-0.3497203488683638,-0.2509508020430242,-2.3145010647288675,22.64227904889316
1777262913.3959196,-0.0897308475,0.9379864592,10.4697952863,-0.3903428872085318,-0.010842857978014772,0.3149010302910769,-0.2904603364751609,-2.315598551796427,22.674152546545375
1777262913.4974372,0.27517459899999996,-0.022731814700000002,9.643075077999999,0.25121832920893383,0.017715091907742442,0.3656028450615122,-0.2649572351968923,-2.3138001568126705,22.7112676981929
1777262913.5985763,-0.5216353268,-0.4989035121,9.9840522985,-0.07635815477475191,0.12232576394915257,-0.9025533894375677,-0.2726800278510938,-2.3014282429806396,22.619984289020238
1777262913.700223,0.0059820565,0.2584248408,10.384850084,0.028405233576207712,-0.08521570072862314,-1.4602733519123556,-0.26979273068160403,-2.310090134489109,22.471552377543563
1777262913.8012493,-0.0346959277,-0.2560320182,10.4422778264,-0.19242255003237485,-0.0759000058461034,2.8399124923825734,-0.28923246829670496,-2.3177580309928434,22.758458219361355
1777262913.9028223,-1.0971091621,0.071784678,10.146764235300001,-0.10674870037510319,-0.002748893571891069,3.1771101038678777,-0.3000752530169838,-2.3180372443332797,23.081166793496806
1777262914.0039124,-0.3780659708,-0.5072783912000001,9.8751788702,0.38667769577934374,-0.061086523819801536,2.112371993688737,-0.260985930201201,-2.3242124928033876,23.294706885593136
1777262914.1052966,-0.5252245607,0.9726823869,9.121439751199999,-0.2386955918258745,0.02336559536107409,1.2186761502050407,-0.2851858829670633,-2.321843591476979,23.41826134693132
1777262914.207686,0.2859423007,0.1866401628,10.2759766557,-0.04169155250701455,-0.024129176908821607,1.3519974884417576,-0.2894546533297367,-2.324314161870028,23.556691471549442
1777262914.313006,-0.7345965382,-0.5922235935,10.217352501999999,-0.0030543261909900766,-0.1114829059711378,-0.3222314131494531,-0.28977633489333166,-2.336055538941245,23.52275406659017
1777262914.4145596,0.3062812928,0.3888336725,9.9816594759,0.17241671348138984,-0.02306016274197508,1.5757268819317805,-0.27226678340224814,-2.338397383294791,23.68277492778149
1777262914.5156407,-1.0671988796,0.8566304908000001,10.316654639900001,0.16569719586121168,-0.12003501930591003,0.11881328882951399,-0.25551792312810045,-2.3505306590325605,23.69478470961862
1777262914.6173306,-0.7812565789,-0.0753739119,10.1551391144,-0.1957823088424639,-0.03420845333908886,1.033278550411943,-0.2754269899966131,-2.3540093103418793,23.799858614792065
1777262914.7188227,-0.2177468566,0.8877371846000001,10.116853952800001,0.30314187445576507,0.05406157358052436,1.8257234806643183,-0.24466046439541675,-2.3485224841137566,23.985155246309596
1777262914.820577,0.6077769404,0.6831508522999999,9.327222494799999,0.6737843577324109,-0.08109236037078654,0.9344710981334139,-0.17610008382502887,-2.3567739714398845,24.080241594611998
1777262914.9215531,-0.5084748025,0.1579262916,10.3453685111,0.2953533426687404,-0.005955936072430649,-0.24449881158875564,-0.1462764171442689,-2.3573753794029404,24.055553026692714
1777262915.022847,-0.1950150419,-0.5180460929,9.6227360859,0.2275473012287607,-0.01710422666954443,-0.3187189380298145,-0.12322728580849839,-2.3591079315570385,24.023268773606972
1777262915.1238875,-0.6125625856,-0.4486542375,9.799804958300001,-0.08628471489546966,-0.0879645943005142,-0.1831068551498551,-0.13194554532166805,-2.3679959270961284,24.00476754678168
1777262915.226203,0.4043870194,-0.0466600407,9.2542414055,-0.09743300549258344,-0.00015271630954950385,0.23380866992029037,-0.14191444477270884,-2.3680115523303775,24.028689780417327
1777262915.3275297,-0.7980063370999999,0.5216353268,10.229316614999998,-0.3521638098211558,0.012064588454410803,0.42852196459590775,-0.17759804289886805,-2.366789087346871,24.072110498692265
