timestamp,accel_x,accel_y,accel_z,gyro_x,gyro_y,gyro_z,roll,pitch,yaw
1777262966.8251295,-0.1088734283,-0.0382851616,10.1013006059,0.004276056667386108,-0.04016438941151951,0.0022907446432425577,0.0,0.0,0.0
1777262966.9266346,-0.6628118601999999,0.44386859230000003,11.258230333,-0.3174972075534185,0.06429356632034111,-0.45921794281535805,-0.032227567108968506,0.006526121093254325,-0.04661293616963362
1777262967.0276673,-0.1603191142,0.394815729,9.6095755616,0.0198531202414355,-0.11407908323347936,-1.9651534712830154,-0.030221752094188654,-0.004999600568596051,-0.24515776394030386
1777262967.1286016,-0.5204389155,-0.2931207685,10.0426764522,0.006108652381980153,-0.059101211795657985,-1.7035504330247153,-0.02960517974338649,-0.010964938062606979,-0.4171043782702571
1777262967.2295964,-0.5599204884,-0.0502492746,10.394421374399998,-0.08888089215781124,-0.05589416929511841,-1.079398875895893,-0.03858168992498642,-0.01660995992938632,-0.5261180792385531
1777262967.3305962,-0.7381857721,-0.1603191142,9.499505722,-0.048411070127192715,0.0160352125026979,0.955087799922597,-0.043471199882195506,-0.014990406158071007,-0.4296543717546869
1777262967.431535,-0.6592226263,0.0047856452,10.4961163349,-0.696233655236188,0.02580905631386615,1.013883579099156,-0.11374818747060933,-0.012385271062119715,-0.3273141829853341
1777262967.532469,-0.20937197749999997,0.7668996433,8.5016986978,-0.1230893454969001,0.06566801310628666,1.161254817814427,-0.12617209099248605,-0.005757133947470838,-0.21010405596256654
1777262967.6333847,0.0693918554,-0.9308079913999999,11.3694965839,-0.3405573702953935,0.009315694882519734,0.061850105367549056,-0.16053966632376904,-0.004817034353207044,-0.2038624111154053
1777262967.7343514,-0.0933200814,-0.4510470601,9.032905315,0.3242167251735967,0.000916297857297023,0.9715811613539433,-0.1278045761013768,-0.004724518789695808,-0.10576507527232508
1777262967.8352947,-0.1854437515,-0.8458627891,12.599407400299999,-0.8634580141928946,-0.04657847441259867,0.5465716718776742,-0.21496490073571115,-0.009426304961162377,-0.05059231229632886
1777262967.9362178,0.49292145559999995,-0.20578274359999998,9.8309116521,0.3908010361371803,-0.11881328882951399,0.4575380634103135,-0.17552406378184687,-0.021417305801375897,-0.004416170243270109
1777262968.0372074,-0.4677968183,0.041874395499999995,10.0031948793,0.0,-0.08872817584826173,-0.09330966513474685,-0.17552406378184687,-0.030377927028159304,-0.013839474149577617
1777262968.1381218,-0.6723831506,-0.9224331123,7.5290163108999995,0.24846943563704274,-0.13652838073725643,0.4422664324553631,-0.15044990031054184,-0.04415561734367663,0.030791612152142933
1777262968.2392557,0.514456859,0.2656033086,9.8871429832,-0.18845192598408772,-0.059406644414756994,0.1605048413365285,-0.16950876411142185,-0.050163638428394886,0.04702408042987785
1777262968.3405857,0.7010970218,0.1220339526,10.719845247999999,0.1605048413365285,-0.09101892049150428,-0.15393804002589986,-0.1532448018159858,-0.05938658945416072,0.031425532386300734
1777262968.4418488,0.0729810893,0.6580262149999999,9.8249295956,-0.037262779530078935,-0.05497787143782138,0.28466320100027515,-0.15701814438348957,-0.06495381619310071,0.06025139527903452
1777262968.5430462,-0.4749752861,0.33260234139999995,9.3786681807,-0.07147123286916779,0.047952921198544204,0.3984368516146555,-0.16425085312492008,-0.06010110135376487,0.10057220106192373
1777262968.6442084,-0.1256231865,0.1339980656,10.485348633200001,0.35720344803628945,0.018784106074588972,0.004886921905584123,-0.12811536818652797,-0.05820085994828294,0.10106657280969139
1777262968.7453222,-0.08135596839999999,-1.1174481541999999,11.6566352959,-0.6239988408192726,-0.04657847441259867,1.0853548119683238,-0.19121025982746176,-0.06291058631893512,0.2108109181087899
1777262968.8467014,-0.4881358104,-0.16749758199999998,10.8227366198,0.07147123286916779,-0.040622538340168025,3.3925928166422277,-0.18396456655285334,-0.06702886497501598,0.5547491148938882
1777262968.9479258,-0.2715853651,0.514456859,11.9198457819,-0.06627887834448466,-0.04657847441259867,1.9091065856783476,-0.190673607734228,-0.07174374414625855,0.747997326433899
1777262969.0492504,-0.8530412569000001,0.0705882667,10.090532904199998,-0.1919644011037263,0.003817907738737596,1.6462818169436515,-0.2101243158773355,-0.07135689633116095,0.9148061043039855
1777262969.1549425,-0.4630111731,-0.42233318890000004,10.2508520184,-0.2528982086139784,-0.03955352417332149,1.6523904693256315,-0.23685367082385814,-0.07553739327026081,1.0894508026864582
1777262969.258482,0.2452643165,0.729810893,10.5260266174,0.16142113919382553,-0.198836635033454,0.6986771161889801,-0.22014021213213295,-0.0961248324534455,1.1617914588024874
1777262969.3611693,0.023928226,0.514456859,10.3178510512,0.12843441633113273,-0.028863382504856226,1.0192286499333887,-0.20695162113285118,-0.09908873697052546,1.2664533569347187
1777262969.4633405,-0.3242274623,1.4823536007,9.9924271776,0.6997461303558266,-0.1272126858547367,-0.1510364301444593,-0.13545773145191847,-0.11208620753015378,1.2510217862462765
1777262969.5648882,0.20458633229999998,-0.7142575461,9.999605645399999,0.03420845333908886,-0.036499197982331415,0.4818199566286846,-0.13198394107737924,-0.1157926177958452,1.299949503351952
1777262969.6705778,0.35892339,-0.2560320182,10.241280728,0.5900958200992829,-0.04612032548395016,-0.9108000701532409,-0.06961699379003633,-0.1206670531169574,1.20368747601714
1777262969.772046,-0.7609175868,-0.3122633493,9.8512506442,0.19181168479417682,-0.04474587869800463,-0.8700248155035234,-0.05015418348351851,-0.12520734246393966,1.1154075155742802
1777262969.873204,-0.1136590735,0.9200402897,10.1312108884,0.6015495433154956,-0.12400564335419713,0.7032586054754653,0.010697307272683636,-0.13775149338905673,1.1865476818429552
1777262969.9746242,-0.0825523797,-2.3150558654999998,9.5162554802,-0.2193006205130875,-0.04276056667386108,-1.3590224386810346,-0.011544197648800537,-0.14208827707848262,1.0487154030850947
1777262970.0763083,0.0765703232,1.3016954943999999,10.228120203700001,-0.4016438941151951,0.030543261909900768,0.1310305935934743,-0.052384992921810314,-0.13898251317939442,1.062039130212183
1777262970.1781325,0.4199403663,0.7286144817,9.882357338,0.561690586523075,0.06032294227205401,0.10766499823240021,0.004808748655683336,-0.1328401727979072,1.0730020415259767
1777262970.2795186,-1.1294122672,-0.23928226,9.9445707256,0.13316862192716733,0.017715091907742442,-0.012370021073509811,0.018310191913681884,-0.13104410924523766,1.0717478937004057
1777262970.3806765,0.3146561719,-0.3720839143,9.6825566509,-0.12202033133005356,0.048411070127192715,0.6029239901014412,0.00596687099106053,-0.12614694687668826,1.1327384206121818
1777262970.4820082,-0.021535403399999997,-0.023928226,10.064211855599998,-0.9170614388447705,-0.0916297857297023,-0.6412557837983667,-0.08696053352993963,-0.13543194982633025,1.0677588749696039
1777262970.5829697,-0.8327022648,0.5048855686,8.6309111182,0.3816380575642101,0.059864793343405505,1.1443033074544322,-0.04842980309878511,-0.1293879136802668,1.1832893924248422
1777262970.6844206,0.4510470601,-0.215354034,9.607182739,0.12599095537834065,-0.012370021073509811,0.40836341173537327,-0.03564790475074692,-0.13064286369989236,1.2247182362826048
1777262970.7853658,-0.4558327053,-0.6436692794,9.4217389875,0.014049900478554353,-0.06627887834448466,-0.39232819923267537,-0.03422963425506575,-0.1373334006034318,1.185114574289073
1777262970.8867352,-0.6891329087999999,0.5790630692000001,10.5140625044,-0.011606439525762293,-0.013439035240356337,0.05726861608106394,-0.03540617184483665,-0.1386957072863244,1.1909198584491267
1777262970.9884772,-0.1052841944,-0.1292124204,9.6777710057,-0.09132435311060329,0.08170322560898456,-1.795638367683066,-0.04469769684477932,-0.13038305532149275,1.0082279672295182
1777262971.0903654,-0.1902293967,0.6317051664,9.93021379,-0.3451388595818786,-0.04627304179349966,1.5984816120546568,-0.079863267018595,-0.13509773132267247,1.1710943490920531
1777262971.1915772,0.0586241537,-0.0801595571,9.8201439504,-0.3701843343479973,-0.11850785621041497,2.070222292253074,-0.11733028474717914,-0.14709212313677367,1.3806252452672538
1777262971.2927506,-0.16151552549999998,0.7477570625,9.7615197967,0.026878070480712675,-0.00198531202414355,1.4981469966806327,-0.11461093894758251,-0.14729298390606205,1.532197871937953
1777262971.3937433,-0.6077769404,-1.4045868662,9.3786681807,-0.379500029230517,-0.11804970728176646,0.38713584470799217,-0.15293766380631274,-0.15921514016996485,1.5712957582626537
1777262971.494722,0.0538385085,-0.227318147,11.168499485499998,-0.2390010244449735,-0.06429356632034111,0.6806565916621387,-0.17707165573639264,-0.16570741531537292,1.6400275167497886
1777262971.595853,-0.7393821834000001,-0.0047856452,9.511469835,0.0003054326190990077,-0.03023782929080176,0.37659841934907645,-0.1770407669688626,-0.168765403300847,1.6781133671143293
1777262971.6969366,-0.3086741154,-0.3302095188,9.8285188295,0.2631302013537951,-0.1282817000215832,0.46013424067265507,-0.15044264076747726,-0.1817325687153355,1.7246253544879648
1777262971.7987423,0.7645068207,0.0143569356,8.9874416856,0.05146539631818279,-0.031001410838549282,-0.004428772976935611,-0.1452031707411155,-0.18488868864219438,1.7241744802126993
1777262971.9016376,0.4043870194,-0.25363919560000003,9.924231733500001,-0.358883327441334,0.05299255941367783,-0.8455902059756026,-0.18213056397660016,-0.17943600547082705,1.6371672562361552
1777262972.0030026,-1.0037890807,0.23569302609999998,10.145567823999999,0.5645921964045157,0.09498954453979139,0.5867360612891938,-0.12490062550419609,-0.1698073817949181,1.6966418095526217
1777262972.1041446,0.7848458128,-0.0299102825,9.3260260835,0.16478089800391463,-0.12263119656825158,-0.7623598172711231,-0.10823436751449847,-0.1822105376482334,1.6195352665641412
1777262972.2059193,-0.6352944003,-0.47138605219999996,9.397810761499999,0.14401147990518212,-0.03436116964863836,0.3094032431472948,-0.09357764342558057,-0.1857076351243803,1.6510246865049127
1777262972.3069065,-0.1830509289,0.2321037922,10.614561053600001,0.29871310147882946,-0.16432274907526612,-1.7898351479201848,-0.06341144490814138,-0.20230212878734788,1.4702742536703588
1777262972.409725,0.1806581063,0.1220339526,10.8969141204,0.17058411776679577,-0.0039706240482871,-0.07635815477475191,-0.04587224365921755,-0.20271038235267647,1.4624232235678862
1777262972.5107994,-1.2358928729,0.5000999234,10.201799155099998,-0.2554943858763199,0.10812314716104872,2.5172229303044715,-0.07169620002128607,-0.19178189394601508,1.7168501648207108
1777262972.6124902,0.1866401628,0.9355936366,9.4444708022,0.321009682673057,-0.0015271630954950383,0.12079860085365753,-0.03905247847104135,-0.19193719233588305,1.7291342674592662
1777262972.7144136,0.4139583098,-0.8650053699,10.6588282717,0.1310305935934743,0.06856962298772722,0.6511823439190844,-0.025697386255497827,-0.18494833871725946,1.7955050287728764
1777262972.815451,-0.24646072779999997,-0.33140593009999997,9.7926264905,-0.05115996369908379,-0.05528330405692039,1.3368785737963564,-0.030866449007354017,-0.1905340124968772,1.930579581996008
1777262972.91854,0.5826523031,1.1988041226,9.7938229018,0.059864793343405505,-0.016187928812247405,-0.6496551808235893,-0.024695041689387777,-0.19220281141449053,1.8636072178872622
1777262973.0206983,-0.0777667345,0.19860427579999998,10.408778309999999,-0.3080287963613492,-0.10308350894591509,1.1194105489978632,-0.05616274234992645,-0.20273364827411552,1.9779643055628937
1777262973.1219966,-0.9355936366,-1.1449656141,9.786644434,0.2628247687346961,-0.13775011121365247,-0.05604688560466791,-0.029539031612478055,-0.2166875048024005,1.972286849525332
1777262973.2231483,-0.2584248408,0.143569356,10.6552390378,-0.7745771220350834,0.025198191075668133,1.401019423807148,-0.10788882799627059,-0.21413866481751767,2.114002352684818
1777262973.3250105,0.40319060809999996,-0.4677968183,9.8201439504,0.4694499355551748,-0.000916297857297023,0.03940080786377199,-0.06006962845409901,-0.2142320009259279,2.1180158053464577
1777262973.4260738,-0.3361915753,-0.39960137419999997,9.6287181424,0.21731530848894395,0.10125091323132103,1.8883371675796148,-0.03810703677848884,-0.2039992544178959,2.308857299421595
1777262973.5289943,-0.9128618219,0.28953153460000003,9.738787982,-0.619264635223238,-0.07208209810736581,1.987144619858144,-0.10184208262475258,-0.2114179823191133,2.5133752813085453
1777262973.6376364,-0.2775674216,-0.6520441585,10.2376914941,0.5545129199742485,-0.04245513405476207,2.082745029636133,-0.041598633807493374,-0.21603039729327966,2.7396490777750233
1777262973.7417192,-0.31345976059999997,0.33140593009999997,10.2137632681,-0.15241087693040484,-0.04856378643674222,2.321746054081107,-0.05746198810378493,-0.22108505327145672,2.9813029609078097
1777262973.8436692,-1.3220344865,-0.4354937132,9.5389872949,0.08781187799096471,-0.06444628262989062,0.3491094836301658,-0.048509573272661956,-0.2276553472866461,3.016894648392935
1777262973.9474816,1.411765334,0.6053841178,9.906285564,0.1230893454969001,-0.0873537290623162,-0.6948592084502424,-0.0357313659930738,-0.23672375245280544,2.9447596072984856
1777262974.0487063,-0.051445685899999996,-0.8111668613999999,9.9529456047,-0.07330382858376185,-0.05329799203277684,1.0774135638717497,-0.043151521182187895,-0.24211882362155715,3.053820429921819
1777262974.1497552,-0.19980068709999999,-0.2847458894,10.582257948499999,-0.4489859500755413,-0.17898351479201852,-0.24908030087524075,-0.08852107837702086,-0.26020491921078986,3.0286511279542094
1777262974.2509384,0.2596212521,0.0299102825,10.7641124661,-0.1942551457469689,-0.11636982787672193,0.4793764956758925,-0.10817643098593843,-0.2719795879906603,3.0771559643059327
1777262974.3532531,-0.3050848815,-0.6592226263,9.3068835027,0.1264491043069892,-0.0478002048889947,2.0106629315287674,-0.09523882747098171,-0.2768702521213142,3.282876360293759
1777262974.4545124,-0.4821537539,-0.8207381518,9.700502820399999,-0.21670444325074595,-0.14340061466698412,-0.6724099109464653,-0.11718215287178976,-0.2913908881687834,3.2147886494130278
1777262974.5555792,0.7250252478,0.5168496816,9.8333044747,-0.012522737383059314,-0.16798794050445423,-0.6481280177280943,-0.11844778621414305,-0.3083688964198641,3.1492844066697674
1777262974.6565962,-0.1507478238,0.6197410534,10.551151254699999,-0.03940080786377199,-0.15607606835959292,0.18646661395994418,-0.12242793755478235,-0.32413523235061353,3.1681207042934907
1777262974.7577689,0.4079762533,-0.9355936366,9.384650237199999,0.2678644069498297,-0.21334468444065688,-0.9851729129038492,-0.09532737612081063,-0.3457198870389023,3.068448114891808
1777262974.8622613,-0.4630111731,0.8530412569000001,10.5379907304,-0.08781187799096471,0.036499197982331415,0.14553864300067715,-0.10450305227655282,-0.341905997297646,3.083655800763847
1777262974.9673452,-0.1591227029,-0.2261217357,10.1898350421,0.4091269932831208,-0.1482875365725682,-0.7344127326235639,-0.06151037487465048,-0.35748863625145233,3.006480815461216
1777262975.0684035,0.2572284295,0.0047856452,10.064211855599998,0.039706240482871,-0.07024950239277176,-1.851074388049536,-0.05749773190760897,-0.3645879276546796,2.8194144869861772
1777262975.1702073,0.1100698396,-0.8662017812,10.3549398015,0.14645494085797417,-0.0678060414399797,0.29947668302657704,-0.04258806538687239,-0.37149083895312285,2.849902345220968
1777262975.2712145,0.09930213789999999,-0.49172504429999997,9.4528456813,-0.037720928458727446,0.00839939702522271,-0.6542366701100745,-0.04639815162434639,-0.3706424391836448,2.7838197159038076
1777262975.372334,-0.7740781111,-0.8003991597,10.2951192365,-0.06979135346412325,-0.13637566442770693,-0.05238169417547982,-0.05345541966674979,-0.38443268067569347,2.778522904222091
1777262975.4733121,0.107677017,0.1304088317,9.6993064091,-0.11759155835311795,0.01634064512179691,1.8496999412635906,-0.0653295960459467,-0.38278263278923363,2.9653021565660302
1777262975.5744832,-0.2799602442,0.23928226,10.419546011700001,0.08048149513258852,-0.08353582132357859,0.6354525640354854,-0.057187201358400705,-0.39123403676283447,3.0295915385297474
1777262975.6754618,-0.6711867393,-0.5204389155,9.7471628611,0.21181752134516182,-0.010842857978014772,0.48716502746291723,-0.03579816186509666,-0.3923289335213237,3.078784787256236
1777262975.776699,-1.4189438018,0.015553346899999999,9.646664311899999,0.040011673101970006,0.1275181184738357,-0.05451972250917286,-0.031747488229480716,-0.3794193438810973,3.073265357913049
1777262975.8778007,-0.35772697870000003,-0.1651047594,10.1300144771,0.2266310033714637,-0.02199114857512855,0.16905695467130075,-0.008834722819373926,-0.3816426849990592,3.0903572927573806
1777262975.9810278,0.16869399329999998,0.0693918554,9.7806623775,-0.2590068609959585,-0.16187928812247407,-0.40882156066402175,-0.035571259936849474,-0.3983530206974814,3.0481558128850446
1777262976.0820057,0.16630117069999997,-0.0729810893,10.4961163349,0.33536501577071043,0.008704829644321718,-0.14920383442986526,-0.001706805700961822,-0.39747402530064824,3.033089523363887
1777262976.1830494,-0.5204389155,-0.2237289131,9.6634140701,0.1951714436042659,0.0517708289372818,-0.2910772860013543,0.018014039323871075,-0.39224290913208926,3.0036779970592455
1777262976.2841644,0.0741775006,-0.23688943739999999,8.8271225714,0.11346821799528134,-0.07422012644105887,-0.6982189672603316,0.02948737686195243,-0.3997476763508073,2.9330775943350087
1777262976.385955,-1.4285150922,-0.7513462964000001,10.8670038379,-0.4428772976935611,-0.05390885727097486,1.0798570248245416,-0.015593398483512912,-0.4052350948669967,3.042996960703211
1777262976.4879313,-0.0669990328,0.3780659708,9.6705925379,-0.25747969790046343,-0.0033597588100890844,1.1693487822205508,-0.04185018838388454,-0.40557771015632543,3.162242654811838
1777262976.588939,-1.328016543,-0.6053841178,11.1290179126,-0.21303925182155786,0.02901609881440573,3.315929229248377,-0.06336879321294932,-0.40264686075308365,3.4971770395096757
1777262976.6899421,-0.5335994398,-0.2763710103,9.3954179389,-0.06963863715457375,-0.08567384965727166,1.0143417280278044,-0.07040251632097613,-0.4113001911557219,3.5996287695173823
1777262976.791094,-0.6580262149999999,-0.8195417405,9.5748796339,-0.08689558013366767,-0.2021963938435431,1.7151568725504776,-0.0791921731075777,-0.43175274930240115,3.773120220080339
1777262976.8922153,-1.4153545679,-0.394815729,9.3810610033,-0.38102719232601207,0.0798706298943905,2.8003589682092516,-0.11772209515490867,-0.4236761363842632,4.056295843560061
1777262976.9934447,-0.0083748791,0.3780659708,8.640482408599999,-0.5253441048502933,-0.01313360262125733,1.4889840181076623,-0.17090237904612673,-0.4250056434815437,4.20702484586802
1777262977.0945857,-0.5659025448999999,0.0586241537,8.7960158776,0.05619960191421741,-0.08445211918087563,0.5145012468722785,-0.16521829646040057,-0.43354721323672457,4.259062004105279
1777262977.196413,-0.0849452023,0.4474578262,8.8678005556,-0.21991148575128552,-0.03451388595818787,0.580780125216763,-0.1876113075551961,-0.43706167192243556,4.318201324378548
1777262977.2979243,-0.9272187574999999,-0.39361931769999997,9.8153583052,0.1395827069282465,0.0516181126277323,-0.22006420206083505,-0.17344209389158644,-0.4318218533028512,4.295862334346533
1777262977.3989704,-0.4247260115,-0.7214360139,9.4731846734,-0.4696026518647243,-0.13194689145077132,0.8898779357449588,-0.2208936035360957,-0.44515457015906457,4.385781016199722
1777262977.5021582,-1.1808579531,-0.6999006105000001,10.7868442808,0.5141958142531794,0.07330382858376185,0.5404630194956941,-0.16783486897498845,-0.4375905093959724,4.441550205867604
1777262977.603271,-0.2775674216,-0.1471585899,10.0414800409,-0.02199114857512855,-0.14278974942878608,-0.5230533602070506,-0.1700584565185749,-0.4520283868491206,4.388662793806607
1777262977.7046063,-0.2524427843,0.6783652070999999,10.301101293,0.3915646176849278,0.05696318346196493,0.3208569663635075,-0.1303791435695749,-0.4462560062992076,4.4211769266092
1777262977.8056595,-1.0193424276,0.32542387359999997,10.5870435937,-0.3309362427937748,-0.005955936072430649,-0.3266601861263887,-0.16382132244732334,-0.4468578729241417,4.388166857103199
1777262977.9067674,0.045463629400000004,1.2251251712,9.9948200002,-0.5128213674672338,-0.018020524526841452,-0.45921794281535805,-0.21567158104836945,-0.4486798891584846,4.341736324758545
1777262978.0077596,-0.7752745223999999,-0.7393821834000001,8.662017812,-0.07422012644105887,-0.01435533309765336,1.4390457848849747,-0.22316723510668782,-0.45012966586935277,4.48706872844483
1777262978.1089783,-0.4845465765,0.6556333924,10.7605232322,-0.020158552860534508,-0.13790282752320196,0.36545012875196264,-0.22520765762935596,-0.46408801085396884,4.524059115541381
1777262978.210995,-0.015553346899999999,-0.5575276658,10.0079805245,0.37384952577718544,0.048869219055841226,1.1044443506620119,-0.18706876742605308,-0.4591025350103998,4.6367308696060405
1777262978.3131976,0.263210486,0.39960137419999997,10.1252288319,0.2072360320586767,0.08491026810952414,-0.0016798794050445422,-0.16588869496908265,-0.4504244802675291,4.636559181472639
1777262978.414269,0.20937197749999997,-0.46540399569999996,10.1048898398,0.025656340004316644,0.036804630601430424,1.3991868280925541,-0.16329557385053953,-0.446704586282,4.777976893901759
1777262978.516916,-0.9786644433999999,-0.7704888772,9.0113699116,-0.21471913122660238,-0.04596760917440065,-0.12980886311707826,-0.18533586270999816,-0.45142302650013444,4.764652394946894
1777262978.6181383,-0.40677984199999995,0.35892339,9.5054877785,0.07315111227421234,0.03329215548179183,0.5077817292521003,-0.17793134058337054,-0.44805311872642917,4.816051217642169
1777262978.7192502,-0.2847458894,-0.3900300838,9.9254281448,-0.11087204073293978,-0.07925976465619249,0.10033461537402402,-0.18914182204646796,-0.45606722324343685,4.826196240123236
1777262978.8212547,-0.8650053699,0.1052841944,10.310672583399999,-0.42256602852347713,0.040622538340168025,0.23029619480065178,-0.23224547035413173,-0.45192354039203153,4.849687494784587
1777262978.9228692,-1.028913718,-0.466600407,9.9158568544,0.179441663720667,0.03787364476827695,0.8710938296703699,-0.2140115998571254,-0.4480750298530889,4.938203237180267
1777262979.024278,-0.49531427819999996,-0.3493520996,10.7952191599,0.4532620067429274,-0.014202616788103856,-0.32604932088819066,-0.16804687992122425,-0.4495152990424551,4.905138992886753
1777262979.1252728,-0.6628118601999999,0.5611168997,10.1132647189,0.09987646644537551,0.06704245989223219,0.40989057483086827,-0.1579598736346841,-0.4427443575137225,4.946535819909801
1777262979.226701,-0.7106683122,-1.0085747259,10.089336492900001,0.11239920382843482,-0.06826419036862821,0.3735440931580864,-0.1465594168027767,-0.4496682762689706,4.984423751174537
1777262979.3329685,-1.3328021881999998,-0.4821537539,10.1348001223,0.049938233222687756,0.038789942625573975,0.1916589684846273,-0.14125260798883524,-0.44554616789361545,5.004790861454343
1777262979.4350176,0.215354034,-0.2165504453,10.3836536727,-0.17562375598192942,-0.07696902001294993,-0.5951354583144165,-0.159174856389086,-0.4534007880620732,4.944057816223233
1777262979.5418484,0.059820565,0.4941178669,10.2472627845,0.3819434901833091,-0.1149953810907764,0.6388123228455745,-0.11837151427920856,-0.4656858406845193,5.012302670299849
1777262979.6477346,-0.1902293967,0.2596212521,9.7830552001,0.5357288138996594,-0.05711589977151443,0.15317445847815234,-0.06164521473098725,-0.47173362746645625,5.028521734851408
1777262979.7487593,-0.6484549246,-0.4331008906,9.923035322199999,0.13301590561761784,-0.007330382858376184,-0.25320364123307737,-0.04820733238971156,-0.4724741766655162,5.002941931267212
1777262979.8511074,-0.6041877065,-0.5419743189,10.643274924799998,-0.18035796157796402,-0.08139779298988555,0.40714168125897726,-0.06666662513249483,-0.4808050852446047,5.044612104385129
1777262979.9523585,-0.7070790783,-1.3292129543,10.4817593993,-0.319482519577562,0.018631389765039467,-0.25915957730550804,-0.09901458976480568,-0.47891863606432655,5.018371905541423
1777262980.05348,1.0731809361,1.6701901747999999,9.3966143502,0.4859432969865212,-0.1672243589567067,-1.4230105723822768,-0.04987531079883631,-0.49582860164186787,4.874475047777469
1777262980.1552339,-0.4689932296,-0.6329015777,10.3034941156,0.0675006088208807,-0.05329799203277684,2.9701795044283004,-0.04300685721587303,-0.5012518828646149,5.176702544915598
1777262980.2563336,-0.5718846014,0.1710868159,9.667003304,-0.2070833157491272,-0.02580905631386615,2.7360654018889106,-0.06394292442993456,-0.5038611714775768,5.453318017044747
1777262980.3589084,-0.6053841178,0.6951149653,10.4063854874,-0.28466320100027515,0.018631389765039467,2.39459173373622,-0.09314220253813758,-0.5019500599275764,5.698942845766112
1777262980.460033,-0.40558343069999997,-0.0466600407,11.107482509199999,0.09896016858807849,0.024587325837470118,2.7363708345080098,-0.08313490248880218,-0.49946367827951615,5.975657046821655
1777262980.5613253,-0.9762716208,-0.0849452023,10.0115697584,-0.17348572764823636,-0.006261368691529657,1.4844025288211773,-0.10070768330704541,-0.5000979071646816,6.126015699597469
1777262980.6633396,-0.8410771438999999,-0.11246266220000001,10.731809361,-0.31703905862476994,-0.04199698512611356,0.9642507784955673,-0.13305020196218054,-0.5043822003391335,6.224383070882885
1777262980.7644308,-0.861416136,0.8374879099999999,10.7449698853,-0.05131268000863329,0.05070181477043527,1.6175711507483448,-0.13823745961265618,-0.4992566957559254,6.387905193007403
1777262980.865579,-0.4642075844,0.3050848815,10.366903914499998,-0.2955060589782899,0.036193765363232405,1.1200214142360612,-0.1681273444415345,-0.4955957641257217,6.501193262947968
1777262980.9665895,-0.2715853651,-0.1734796385,9.811769071299999,-0.5496259980686643,-0.06688974358268268,-0.6895141376160099,-0.2236453748407981,-0.5023523346494443,6.431545053097267
1777262981.0704305,-0.011964113,0.2380858487,10.3800644388,0.3316998243415223,-0.06398813370124211,0.9718865939730424,-0.18920131136959265,-0.5089969306873978,6.5324667933968765
1777262981.1713834,-0.24287149389999999,0.8889335959,9.7663054419,-0.14477506145292962,-0.1518000116922068,0.079412480965742,-0.2038167684146303,-0.524321576576393,6.540483710763353
1777262981.2724583,0.47377887479999997,0.1351944769,9.4947200768,-0.17654005383922644,-0.0478002048889947,-0.46853363769787776,-0.22166054270579943,-0.5291529791310089,6.493126704253572
1777262981.3735888,-0.5826523031,-0.6293123438,10.5391871417,-0.17287486241003833,-0.029321531433504737,0.09880745227852898,-0.23914346147806553,-0.5321182798414993,6.503119149876944
1777262981.4747624,0.1531406464,-0.34097722049999996,10.201799155099998,-0.3141374487433294,-0.04153883619746504,-0.9506590269456614,-0.27092589040705545,-0.5363209150717789,6.406937516389845
1777262981.5760086,1.4213366244,0.0023928226,11.4520489636,-0.8649851772883898,0.010231992739816757,-0.4216497306661801,-0.358502282206924,-0.5352849655218864,6.364247117774125
1777262981.6770296,-0.040677984199999996,-0.5084748025,9.629914553699999,0.29428432850189384,0.012370021073509811,0.2306016274197508,-0.3287733699291008,-0.5340353329871155,6.387542736632201
1777262981.7791831,-0.6496513358999999,-0.41874395499999995,10.0091769358,-0.038331793696925465,0.06475171524898962,-1.0096075224317698,-0.3326890983366663,-0.5274207160755306,6.284407754550863
1777262981.8802872,0.0658026215,-0.6831508522999999,9.1022971704,-0.06704245989223219,0.019547687622336492,-0.11010845918519226,-0.3394673606143553,-0.5254443662542455,6.273275346573156
1777262981.9817297,-0.5204389155,-0.693918554,9.7531449176,-0.010079276430267254,-0.1275181184738357,0.09834930334988047,-0.3404898283741616,-0.5383801326093705,6.283252153199144
1777262982.0853207,0.3649054465,0.8267202082999999,10.079765202499999,0.1189660051390635,-0.21380283336930536,0.38820485887483874,-0.3281660250673717,-0.5605281744957707,6.32346666925288
1777262982.1872246,0.46540399569999996,-0.7812565789,10.021141048799999,0.05604688560466791,-0.07208209810736581,0.8355109295453356,-0.3224546279779846,-0.5678736225235383,6.408608504337449
1777262982.288344,0.2596212521,-0.44386859230000003,9.531808827099999,-0.019700403931885994,-0.08277223977583108,0.7469354700066233,-0.32444671863655655,-0.5762434918021897,6.484138081167493
1777262982.3894713,0.5946164161,0.8506484343,9.523433948000001,0.08659014751456867,-0.04016438941151951,0.8304712913302019,-0.31569008335698884,-0.5803052115174037,6.56812147208511
1777262982.4921556,-0.5156532703,-0.215354034,9.455238503899999,0.4508185457901353,-0.0016798794050445422,0.38942658935123475,-0.269398114852129,-0.5804777086900166,6.608109453009024
1777262982.5933733,-0.2237289131,-0.6029912952,9.2494557603,-0.11163562228068731,-0.1901318053891323,0.22036963467993403,-0.2806976209946972,-0.5997224216140896,6.630414770880058
1777262982.6944551,-0.12442677519999999,-0.7142575461,10.1013006059,-0.3872885610175417,0.03481931857728687,0.41859540447519,-0.3198454645075864,-0.5962028205411642,6.672727167989217
1777262982.7966762,0.1256231865,0.59820565,10.2676017766,0.05528330405692039,0.07605272215565291,-0.5902485364088323,-0.31419434921380024,-0.5884286343082761,6.612391365197826
1777262982.8976219,-0.5180460929,-0.20578274359999998,9.0245304359,0.13652838073725643,0.1189660051390635,-0.1356120828799594,-0.3004123947300499,-0.5764195263185204,6.598701907052893
1777262982.9986074,-0.5000999234,-0.0586241537,9.308079914,0.04077525464971753,-0.02199114857512855,-0.5729915934297384,-0.2962946841491161,-0.5786403140475634,6.540838049001719
1777262983.099682,-0.40917266459999996,0.12083754129999999,8.1523465982,-0.12873984895023172,-0.11331550168573185,-0.7367034772668065,-0.3093070251916975,-0.5900936438857549,6.4663759692989755
1777262983.2022088,-0.1579262916,-0.8865407733,11.3515504144,-0.6261368691529657,0.008246680715673207,0.6076581956974757,-0.37350275005286915,-0.5892481392168517,6.528677137402049
1777262983.303404,-1.0923235169,-0.9738787981999999,10.582257948499999,0.0956004097779894,0.05726861608106394,2.437505016719631,-0.3638284345221377,-0.5834528224053113,6.775341275079372
1777262983.4060302,-0.8075776275,0.010767701699999998,10.5451691982,0.18860464229363724,0.062002821677098564,0.578336664263971,-0.3444726784176482,-0.5770897155401916,6.834693702907471
1777262983.507176,-0.5694917788,-0.4295116567,8.5351982142,0.038637226316024474,0.036193765363232405,-0.3159700444579235,-0.34056468740330953,-0.573428870202649,6.802734677576772
1777262983.6088097,-1.2263215825,-0.31345976059999997,10.4362957699,-0.40759983018762574,0.025961772623415653,1.1795807749603675,-0.3819906017890745,-0.5707902769296703,6.922619938991402
1777262983.709919,-1.0552347666,-0.4354937132,9.9924271776,-0.07376197751241036,-0.10247264370771707,2.8304440811905045,-0.3894486212147994,-0.581151210748845,7.208804063290335
1777262983.8113208,-0.9272187574999999,0.020338992099999998,10.3238331077,-0.17730363538697394,0.07024950239277176,1.4909693301318059,-0.4074275300317173,-0.5740277843442092,7.359991045873944
1777262983.9129627,-0.6472585133,-0.059820565,10.384850084,-0.03329215548179183,0.03512475119638588,1.7006488231432746,-0.41081140774981567,-0.5704576381278669,7.532848212244328
1777262984.0139983,0.0933200814,-0.34576286570000003,9.2949193897,0.059406644414756994,-0.11362093430483085,0.500145913774625,-0.40480922208797065,-0.5819373968230152,7.58338075219945
1777262984.115665,-0.20458633229999998,0.2261217357,10.063015444300001,0.04444044607890562,-0.011911872144861299,1.6817120007591364,-0.400291109081042,-0.5831484374228104,7.754354843032091
1777262984.2166512,-0.34576286570000003,-0.14476576730000001,10.1898350421,0.3491094836301658,-0.16905695467130075,0.9016370915802706,-0.36503585417992407,-0.6002208640087848,7.845407784823955
1777262984.3182244,0.4390829471,0.24287149389999999,10.3465649224,-0.20158552860534507,-0.06291911953439558,1.3200797797459112,-0.3855115472069928,-0.6066117621354153,7.979492550373942
1777262984.4243972,-0.0071784678,0.6053841178,10.9100746447,0.3784310150636705,0.039095375244672985,0.9531024878984534,-0.3453324667065883,-0.6024608966761322,8.080686110262167
1777262984.5261712,-0.34815568830000004,-0.36969109170000003,9.8608219346,0.22204951408497858,0.0004581489286485115,0.4393648225739225,-0.32273360450514343,-0.6024142690374773,8.12540201573229
1777262984.6289008,0.8673981925,0.1004985492,9.954142016,0.010231992739816757,-0.16600262848031067,0.4057672344730317,-0.32168247640385667,-0.6194676458449209,8.167086304763915
1777262984.7299824,0.32542387359999997,-0.17587246110000002,10.4458670603,0.14080443740464255,-0.03940080786377199,-0.7076873784524008,-0.30744973721443836,-0.6234503429282939,8.095552125367208
1777262984.8309937,-0.14476576730000001,-0.42831524540000004,9.9445707256,0.14905111812031574,-0.09285151620609834,-0.5009094953223726,-0.2923938935473436,-0.6328293930815662,8.044954617961398
1777262984.9369576,-0.5491527867,0.36011980130000004,10.3573326241,-0.13377948716536536,0.08124507668033605,0.2762638039750524,-0.3065696958194752,-0.6242203442131027,8.074228620598712
1777262985.0400448,-0.3002992363,-0.16630117069999997,10.676774441200001,0.7258606192887916,-0.11010845918519226,-0.0516181126277323,-0.23174276655839432,-0.6355711155148572,8.068907454579303
1777262985.1450624,-0.6508477471999999,-0.299102825,10.090532904199998,-0.1235474944255486,-0.01313360262125733,-0.1551597705022959,-0.24471743557489573,-0.6369503757564137,8.052612938237194
1777262985.246174,0.16630117069999997,-0.1328016543,10.052247742599999,0.23121249265794883,0.038331793696925465,-0.4735732759130114,-0.22133915883368013,-0.63307458483036,8.004729162692604
1777262985.3479598,-0.022731814700000002,-1.1904292435000001,9.2566342281,-0.02336559536107409,0.01634064512179691,-0.16569719586121168,-0.22371744137389413,-0.631411341485243,7.987863564286511
1777262985.4509854,-0.6783652070999999,-0.3505485109,10.348957745,0.7927503628714744,-0.11270463644753383,-0.7228062930978016,-0.14204380027530317,-0.6430228127105869,7.913395958176006
1777262985.5523422,0.0849452023,-0.0610169763,10.8358971441,-0.15378532371635034,0.048869219055841226,0.3500257814874628,-0.15763098008001417,-0.6380695877478187,7.948873431971832
1777262985.6534667,0.3613162126,-0.0035892339,9.7375915707,-0.16768250788535521,0.0007635815477475192,0.579558394740367,-0.17458779405249916,-0.6379923709264504,8.007480999390394
1777262985.7548363,-0.14476576730000001,-0.3924229064,10.907681822099999,0.561690586523075,0.03237585762449481,0.25259277599487934,-0.11764943309322,-0.634710442562294,8.033086232948481
1777262985.8559706,0.5060819799,-0.071784678,9.9732845968,-0.34666602267737373,-0.057879481319261954,0.21135937241651329,-0.1527092587108838,-0.6405640434033049,8.054461915175285
1777262985.957309,-0.10289137179999999,-0.0586241537,9.397810761499999,0.5687155367623523,-0.0004581489286485115,1.233947781159991,-0.095076543817634,-0.6406104714765272,8.179508192387276
1777262986.0590992,-0.4235296002,-0.48693939909999995,10.540383553,0.09758572180213294,-0.1389718416900485,1.0774135638717497,-0.08514327467918317,-0.6547564416110973,8.289178323485508
1777262986.1607482,-0.6999006105000001,0.0071784678,10.969895209699999,0.002138028333693054,-0.05451972250917286,0.9624181827809731,-0.08492594613886158,-0.660298319389298,8.387007213564559
1777262986.261785,0.3182454058,0.0179461695,10.470991697599999,-0.045356743936202634,0.12583823906879116,-0.11759155835311795,-0.08950864581645768,-0.6475840280278865,8.375126140326346
1777262986.3645282,-0.3888336725,-0.9415756931,9.1274218077,0.10567968620825664,-0.02153299964648004,0.556192799379293,-0.07865078209083329,-0.649796396214755,8.432271139876525
1777262986.4659536,-1.0827522265,-0.6652046827999999,9.950552782099999,-0.2981022362406315,-0.1824959899116571,-0.3953825254236654,-0.10888592341985731,-0.668306126690259,8.392169305398633
1777262986.567407,-1.3016954943999999,-0.622133876,9.236295236,-0.2901609881440573,-0.14859296919166723,0.33521229946116093,-0.1383237144433473,-0.6833813744091305,8.426177700817876
1777262986.6717138,-0.7668996433,-0.0059820565,10.194620687299999,0.005955936072430649,0.011453723216212788,0.4288273972150068,-0.1377024689990476,-0.682186671631631,8.470907372807455
1777262986.7728457,-0.4103690759,-0.5156532703,9.4456672135,-0.0030543261909900766,-0.12522737383059315,0.05268712679457882,-0.13801135885897234,-0.6948511558885455,8.476235722891156
1777262986.8742316,-0.3086741154,-0.8063812161999999,9.3882394711,-0.047647488579445195,0.11209377120933582,-1.386969523328594,-0.1428421391233473,-0.6834864356512018,8.335616664041625
1777262986.9761965,-0.9535398061,-0.2656033086,9.5665047548,-0.12110403347275654,0.05711589977151443,0.2793181301660425,-0.155190505909198,-0.6776626157547224,8.364097323374942
1777262987.0792315,-0.1639083481,0.1160518961,9.7758767323,0.29352074695414637,0.07116580025006879,-1.0650435427982399,-0.12494760362941477,-0.6703300494371475,8.25436059054497
1777262987.1803355,0.8638089586000001,-0.1148554848,10.222138147199999,-0.11667526049582093,-0.10415252311276162,-0.2884811087390127,-0.13674394162521059,-0.6808602883286825,8.225193990448034
1777262987.2829223,0.0741775006,0.8111668613999999,10.0965149607,-0.12507465752104363,0.02672535417116317,0.737161626195455,-0.14957494377435254,-0.6781186212027974,8.300817003114588
1777262987.383893,-0.8470592004,0.021535403399999997,9.6634140701,0.12476922490194463,-0.018784106074588972,1.8026633179223432,-0.1369769021721169,-0.6800152663889357,8.482833261465615
1777262987.485486,0.29551359110000003,0.28115665549999996,10.8550397249,-0.32284227838765106,-0.06032294227205401,-0.1821905572925581,-0.16977542343531543,-0.6861436561235448,8.464323972976024
1777262987.5866587,0.11246266220000001,0.3266202849,9.9266245561,0.09040805525330627,-0.08720101275276669,1.2437216249711593,-0.1606285976833706,-0.6949660167728023,8.590154629941967
1777262987.6882544,-0.8362914987,0.5910271822000001,10.5332050852,0.6553056842769209,-0.006108652381980153,1.9616409961633767,-0.09405239717402879,-0.6955866292222019,8.789448802755413
1777262987.7892206,-0.2859423007,-1.0253244841,9.6526463684,-0.40256019197249215,-0.11026117549474176,2.071138590110371,-0.1346973761209737,-0.706719282788095,8.998563827216136
1777262987.8906493,-0.041874395499999995,-0.0370887503,8.419146318100001,0.10445795573186063,0.016187928812247405,-0.46502116257823917,-0.1241023365384076,-0.7050773614492764,8.951397313284977
1777262987.9924395,0.8518448456000001,-0.6963113766000001,10.6983098446,0.03329215548179183,0.024434609527920613,-0.2344195351584884,-0.12071352171496116,-0.7025901579091322,8.927535704321718
1777262988.0950367,0.1459621786,-0.2656033086,10.478170165399998,0.6493497482044903,-0.10659598406555368,0.4870123111533677,-0.05409203194065079,-0.7135266113104654,8.977501821652451
1777262988.196723,-1.2837493249,-0.4510470601,10.1240324206,-0.11026117549474176,0.0919352183488013,-0.20540343634408267,-0.0653040762111743,-0.7041780647026328,8.956615118683125
1777262988.2983358,-0.155533469,0.442672181,10.3202438738,0.2144136986075034,-0.139735423237796,1.614364108247805,-0.043516898582174376,-0.7183769732001648,9.120655186144775
1777262988.4009316,-0.0059820565,-0.2297109696,9.8955178623,0.18448130193580065,0.016951510359994926,2.0054705770040844,-0.0245898906956669,-0.7166378193297986,9.326408056646112
1777262988.5021172,-0.4390829471,-0.32303105099999996,9.8871429832,-0.1751656070532809,-0.15057828121581077,2.477363973512051,-0.042314120777757654,-0.7318741670725549,9.57708151819073
1777262988.605228,-1.1437692028,0.5168496816,10.4219388343,-0.18539759979309767,0.14599679192932566,2.6422975878255155,-0.061430613803375084,-0.7168203224823653,9.849530910554183
1777262988.7078886,0.1136590735,-0.1698904046,9.2590270507,0.22876903170515675,-0.2504547476611863,0.6528622233241289,-0.03794503494167993,-0.7425321711694014,9.916554174662158
1777262988.8093767,-0.5910271822000001,-0.3278166962,10.6540426265,-0.6750060882088069,0.04657847441259867,1.4065172109509305,-0.10645012936974696,-0.7378050096760619,10.059298952870869
1777262988.9106007,-0.1507478238,0.0729810893,10.121639598,0.24480424420785463,-0.1916589684846273,0.6733262088037624,-0.08167007786707486,-0.7572054866790896,10.127455688413777
1777262989.012258,-1.663011707,-0.33738798659999997,10.9340028707,0.4375322268593285,-0.11377365061438036,2.3362541034883093,-0.03719169338356241,-0.7687714191189559,10.36495318434005
1777262989.1166918,-1.531406464,-1.0301101293000001,9.1992064857,0.38087447601646257,-0.1708895503858948,-0.7440338601251827,0.0025844659282240195,-0.7866180599649418,10.287250919637955
1777262989.21773,0.035892339,-0.1698904046,9.8261260069,-0.32452215779269566,-0.010842857978014772,1.130253406975878,-0.030204674448862982,-0.7877136030081292,10.401449709252459
1777262989.3192828,0.1100698396,0.33260234139999995,9.6023970938,-0.06765332513043021,0.00198531202414355,-0.777784164535623,-0.03707505396022669,-0.7875119891624233,10.32246360800782
1777262989.4247918,-0.48335016519999996,-0.2344966148,10.0917293155,-0.03634648167278191,-0.029168815123955232,1.4381294870276777,-0.04090993644848407,-0.790589562924008,10.474199273520087
1777262989.527039,0.9678967417,-0.6245266986,10.935199282,0.639270471774223,-0.05390885727097486,-0.7747298383446329,0.024453703727146066,-0.7961015946922826,10.39498528722984
1777262989.6289172,-0.3361915753,-0.9032905315,10.3776716162,-0.3229949946972006,-0.11942415406771201,-0.914770694201528,-0.008452434023973401,-0.8082683085085357,10.301790126412248
1777262989.730111,0.2021935097,-0.4235296002,10.755737587,0.8746063047900084,-0.10705413299420219,-1.0900890175643585,0.0800521846651242,-0.8191015087357153,10.19148002195917
1777262989.8320775,-0.3158525832,0.0933200814,10.2927264139,-0.4005748799483486,-0.022449297503777062,-1.016021607432849,0.039206918303546744,-0.8213905877121361,10.087879733318845
1777262989.9334533,0.0765703232,-0.1220339526,9.4576313265,-0.012675453692608817,-0.04214970143566306,-1.2866349079545698,0.03792193381373605,-0.8256635481842777,9.957446066732638
1777262990.0349348,-0.2285145583,0.1052841944,9.8249295956,-0.10827586347059823,0.04428772976935611,-1.1349876125719125,0.0269339435223601,-0.8211691656955625,9.842265892056325
1777262990.1359954,0.16271193679999998,-0.7585247642,10.0235338714,-0.0032070425005395805,0.0007635815477475192,-2.1200078091662125,0.026609837790375436,-0.8210919976641377,9.628016569608175
1777262990.2398818,-0.7250252478,0.010767701699999998,9.9050891527,0.2965750731451364,-0.11774427466266746,-1.2562443623542188,0.057419944353133745,-0.8333240224632554,9.497509908132763
1777262990.341519,0.49292145559999995,-0.3182454058,9.7375915707,-0.27259861254586437,-0.04138611988791554,-0.15775594776463747,0.02971374009824977,-0.8375303985714199,9.481476009535958
1777262990.442547,-0.4522434714,1.1617153723,9.8715896363,0.22098049991813207,0.13713924597545443,1.1056660811384078,0.052038950430240274,-0.8236754995540546,9.593179204286209
1777262990.544239,0.382851616,0.1160518961,9.9756774194,0.1510364301444593,0.07788531787024697,1.3356568433199607,0.06739814123763664,-0.8157551888242547,9.729004768291759
1777262990.645817,0.4331008906,0.0658026215,10.3142618173,0.4219551632852791,-0.15363260740680088,-0.594982742004867,0.11025950163557868,-0.8313608813904254,9.668567612985793
1777262990.7478101,0.35174492220000003,0.6041877065,9.3463650756,-0.11239920382843482,0.022143864884678056,0.4667010419832837,0.0987955602031584,-0.8291023603201796,9.716167891542147
1777262990.849207,-0.4582255279,-0.5826523031,9.456434915200001,0.0317649923862968,-0.20922134408282025,-0.935998261228909,0.10201642875416847,-0.8503167349109672,9.621260663902047
1777262990.9506438,0.0825523797,0.7692924659,10.1252288319,0.07498370798880638,0.02641992155206416,0.6898195702351089,0.1096225401494783,-0.847636781201418,9.691233790526518
1777262991.0523064,-1.4261222696,-0.5503491979999999,9.5401837062,-0.059101211795657985,-0.02703078679026218,0.7591527747705836,0.1036141551791672,-0.8503848022343511,9.768411262587025
1777262991.1538007,0.33260234139999995,-0.32542387359999997,10.3681003258,0.006261368691529657,-0.002901609881440573,-0.3933972133995219,0.10424964848848545,-0.8506792991337913,9.728483682957663
1777262991.2553592,-1.4081761001,-0.12681959780000002,10.193424276,0.17440202550553338,0.009468411192069237,-0.1354593665704099,0.12196164733227825,-0.8497177019986641,9.714726640072861
1777262991.3574715,-0.2117648001,0.031106693799999998,9.1513500337,0.04550946024575214,0.020463985479633514,1.6594154195649087,0.12660872268224171,-0.847628077512439,9.884173354008107
1777262991.4592867,-0.3002992363,-0.7692924659,9.3140619705,-0.7275404986938363,-0.08109236037078654,1.496772549894687,0.05253402406139529,-0.8558845143234527,10.036567585994446
1777262991.5603762,-0.5096712138,-0.3397808092,10.4315101247,0.497091587583635,0.10461067204141013,-0.2955060589782899,0.10278475293928807,-0.8453094761417763,10.006695032882703
1777262991.6618147,0.6855436748999999,0.32542387359999997,9.9888379437,-0.11652254418627142,0.048411070127192715,-1.097266684113185,0.09096487823786734,-0.8403987287232306,9.895389921834592
1777262991.7628562,0.3804587934,-0.4522434714,10.529615851299999,0.13988813954734552,-0.0638354173916926,-0.4074471138780762,0.10509939344039569,-0.8468487585863931,9.854220831703211
1777262991.869046,-0.6544369810999999,-0.0789631458,11.2402841635,-0.009468411192069237,0.05360342465187585,3.0062205534819832,0.10409394543337043,-0.841156625514363,10.173450573933733
1777262991.970143,-0.5994020613,-0.1423729447,9.726823869,-0.014508049407202865,-0.12904528156933073,2.605645673533634,0.10262722361105259,-0.8542027301444534,10.43687381322202
1777262992.072935,-0.3864408499,0.6628118601999999,10.2388879054,-0.18723019550769168,-0.04413501345980661,1.9164369685367235,0.08338145274623647,-0.8587394575342836,10.633868249260011
1777262992.1740644,0.15672988029999999,0.9427721043999999,9.2817588654,-0.04199698512611356,-0.056505034533316414,1.9946277190260695,0.07913432731374798,-0.8644537717525408,10.835583541164493
1777262992.2756882,-0.5132604477,-0.8590233134,9.1202433399,0.058337630247910464,-0.02550362369476714,0.11774427466266746,0.08506281744095373,-0.8670455462322354,10.847549158672544
1777262992.3796654,0.6053841178,0.015553346899999999,11.468798721799999,-0.13393220347491486,0.14981469966806327,0.5644394800949663,0.07113692148256538,-0.8514682327371624,10.90623799728395
1777262992.481099,-0.2500499617,-0.15672988029999999,9.6358966102,0.2736676267127109,0.0032070425005395805,1.386053225471297,0.09889599095190663,-0.8511429311418186,11.046830248681127
1777262992.5838568,0.454636294,-0.311066938,10.1383893562,0.17791450062517197,-0.02641992155206416,1.0864238261351704,0.1171781168875679,-0.8538577876112344,11.158468912978375
1777262992.686488,-0.36011980130000004,-0.3278166962,9.1357966868,-0.21624629432209744,-0.12461650859239512,0.14538592669112765,0.09498452354486886,-0.8666473159782135,11.173390029406518
1777262992.789265,-0.6424728680999999,-0.6819544409999999,10.5894364163,0.25931229361505753,-0.038331793696925465,-0.13637566442770693,0.1216358642457317,-0.8705869429016038,11.159373747165134
1777262992.8903108,-0.4103690759,-0.6436692794,9.3619184225,-0.5225952112784021,-0.02871066619530672,1.0181596357665421,0.0688297885157945,-0.8734880364834939,11.262254549880357
1777262992.991805,0.28115665549999996,-0.5120640364,9.2554378168,0.29688050576423547,-0.14905111812031574,-0.18891007491273626,0.09896147127956734,-0.8886158772126309,11.24308125174312
1777262993.0928862,-0.6005984726,0.044267218100000005,9.1106720495,-0.5476406860445208,0.018936822384138473,-1.2481503979480948,0.043605330318190846,-0.8867017217527283,11.116916795502929
1777262993.1945384,0.3086741154,-0.0394815729,9.620343263299999,-0.04612032548395016,-0.1866193302694937,-0.8112290363269643,0.038917100286858596,-0.9056719770450727,11.034453623561085
1777262993.295616,-0.885344362,-0.1974078645,9.8512506442,-0.17272214610048883,-0.07345654489331135,0.3323106895797203,0.02145876778656719,-0.9130967851199093,11.068042776099222
1777262993.3994122,0.5479563754,-0.5419743189,9.9254281448,0.5221370623497537,-0.0632245521534946,0.28557949885757217,0.07565463353810839,-0.9196592561410085,11.097684855349115
1777262993.5025783,-1.0564311779,-0.9391828704999999,10.2101740342,-0.21380283336930536,-0.09758572180213294,0.33292155481791835,0.053597428331420435,-0.929726794803204,11.132031074885244
1777262993.6056721,0.0083748791,0.7728816998,11.328818599700002,0.6878342582109652,0.049174651674940235,0.7825183701316577,0.12450891879330132,-0.9246571900232915,11.21270391616559
1777262993.7073293,0.8195417405,1.0444670649,10.060622621699999,0.18127425943526107,-0.035430183815484885,0.00015271630954950385,0.14293674377028584,-0.9282589216110425,11.21271944087071
1777262993.8154325,-0.36370903520000003,0.8195417405,9.2135634213,-0.03787364476827695,0.040011673101970006,-0.8567384965727165,0.13884247872332153,-0.9239335286985237,11.120103203316397
1777262993.9177682,-0.0071784678,0.2907279459,10.2161560907,0.12064588454410802,-0.12614367168789017,0.09224065096790032,0.15118885873898416,-0.9368425285630014,11.129542714113182
1777262994.0193398,-0.6233302873,-0.5659025448999999,9.5461657627,0.3518583772020568,-0.05131268000863329,-0.9251554032508943,0.18692766297739288,-0.9420544375144361,11.035573236649519
1777262994.1205132,-0.2799602442,-0.6245266986,9.4420779796,0.05406157358052436,0.012980886311707827,0.15210544431130582,0.19239725623339976,-0.9407411170998582,11.050962261742692
1777262994.2221968,-0.09930213789999999,-0.8171489179,9.5425765288,0.23212879051524585,-0.12538009014014265,-0.09712757287348445,0.21600095117883725,-0.9534902181197293,11.041085978857627
1777262994.32331,0.04307080679999999,0.071784678,9.9146604431,-0.3643811145851162,-0.11728612573401895,1.1907290655574814,0.1791572540327951,-0.9653493796487153,11.161484263286667
1777262994.425207,-0.4642075844,0.8566304908000001,8.5950187792,0.08063421144213803,0.08994990632465776,-0.059406644414756994,0.1873736383782362,-0.9561837539300319,11.155430904365499
1777262994.5263383,-1.1976077113,-0.9702895642999999,10.2269237924,0.2470949888510972,0.1475239550248207,-0.8445211918087563,0.21236271022207562,-0.9412644440405703,11.070023260795393
1777262994.627965,0.49172504429999997,1.2658031554,9.9888379437,0.046883907031697675,-0.006108652381980153,-0.3187189380298145,0.21712736391050216,-0.9418852458240786,11.037632927740844
1777262994.7290094,-0.020338992099999998,0.6879364975,9.9840522985,0.49632800603588745,-0.07345654489331135,-0.6798930101143911,0.2672785376370789,-0.9493076195356119,10.968933535300623
1777262994.830418,-0.4390829471,-0.0287138712,9.487541608999999,-0.1514945790731078,-0.08674286382411818,-0.953866069446201,0.25191566628383966,-0.9581041023265795,10.872203198130933
1777262994.9334514,0.2763710103,0.2380858487,10.0917293155,0.219147904203538,-0.001832595714594046,-0.2504547476611863,0.274495198965608,-0.9582929207183434,10.846398017923198
1777262995.0344455,0.2380858487,0.897308475,10.2376914941,0.3474296042251212,-0.03436116964863836,0.08888089215781124,0.3095835426692979,-0.9617631964692578,10.855374464532229
1777262995.1359928,-1.0348957745,0.1782652837,9.7698946758,-0.2031126917008401,-0.012980886311707827,0.20784689729687472,0.28895800917214987,-0.9630813696626845,10.87648074354698
1777262995.2369764,-0.4235296002,0.32542387359999997,10.393224963100002,-0.05665775084286592,0.049480084294039245,0.5548183525933474,0.2832365044085464,-0.958084691648109,10.932508309062266
1777262995.338307,0.41156548719999997,1.0875378717,10.384850084,0.11056660811384078,-0.05253441048502932,-0.318260789101166,0.29444027616211305,-0.9634080307133396,10.900258778213601
1777262995.4393854,0.4103690759,-0.3744767369,10.0678010895,-0.13698652966590494,-0.14416419621473162,-0.2306016274197508,0.28059388181445033,-0.977979932903076,10.87694990924485
1777262995.5408723,0.1387837108,0.18185451760000002,9.8153583052,-0.1881464933649887,-0.023518311670623588,2.0428860728437126,0.26149947344748536,-0.9803667339489467,11.084276127365703
1777262995.6418889,-1.3363914221,1.43569356,10.6540426265,-0.010995574287564275,0.05314527572322733,2.570368206027699,0.26038873878156815,-0.9749981830636801,11.343925782394212
1777262995.7434223,-0.7345965382,0.22492532440000002,9.7782695549,-0.02138028333693054,0.023518311670623588,2.2298108357323057,0.25821792564488755,-0.9726102886133315,11.570326086741877
1777262995.8443787,-0.5587240770999999,0.12083754129999999,8.7852481759,-0.30421088862261164,-0.09834930334988047,1.0358747276742846,0.22750587732885325,-0.9825392841532543,11.67490431150476
1777262995.9477265,-0.3732803256,0.4199403663,10.417153189099999,-0.49663343865498644,-0.07773260156069746,1.871080224600521,0.1761799148042832,-0.9905727758276105,11.868276295776294
1777262996.0509002,0.3182454058,0.7549355303,9.5174518915,-0.05421428989007387,-0.16187928812247407,0.5032002399656151,0.17058642414752337,-1.007274466239344,11.92019334285805
1777262996.152327,0.0167497582,0.5874379483000001,10.6492569813,0.41462478042690293,-0.010079276430267254,1.0971139678036355,0.2126405053408062,-1.0082967753954237,12.03147014554407
1777262996.254097,0.1830509289,0.0394815729,10.2137632681,-0.13836097645185047,-0.056810467152415424,1.0435105431517597,0.1985595192600695,-1.0140783723292361,12.13766813438477
1777262996.3562083,-0.3924229064,0.3050848815,9.6945207639,0.2955060589782899,0.021685715956029545,0.9793696931409681,0.22873403879312573,-1.0118640148234512,12.237672885684765
1777262996.4577897,0.7310073043,-0.2656033086,10.4004034309,-0.015424347264499889,-0.08689558013366767,-0.1114829059711378,0.22716721300544926,-1.0206909838649159,12.226348303258984
1777262996.5587912,0.056231331100000004,0.8027919822999999,9.3942215276,0.21746802479849348,0.020922134408282025,0.37079519958619533,0.2491318099477335,-1.0185778168838113,12.263799175011698
1777262996.6604385,0.0574277424,-0.1734796385,10.066604678200001,-0.2223549467040776,-0.1362229481181574,0.7264714845269897,0.22653001284914065,-1.0324245222491581,12.33764309588945
1777262996.7627318,-0.27517459899999996,0.5192425042,10.3477613337,-0.23304508837254284,0.04673119072214818,0.8434521776419097,0.20269107267667077,-1.0276442367361989,12.42392256284394
1777262996.8656816,0.35772697870000003,-0.2560320182,10.4554383507,-0.09621127501618743,0.05772676500971245,0.06398813370124211,0.1927861356034842,-1.0217012744922869,12.430510132103725
1777262996.9681935,0.020338992099999998,0.7250252478,11.056036823300001,-0.3636175330373686,-0.10949759394699425,0.3136792998146809,0.15551101767928385,-1.0329260790078902,12.462665987717463
1777262997.071126,0.20338992099999997,-0.48335016519999996,9.5916293921,0.26603181123523567,-0.15042556490626127,-1.175152001983432,0.18289432462713223,-1.0484097514209962,12.341704709322691
1777262997.1722436,0.0873380249,-0.8111668613999999,10.8801643622,-0.23319780468209236,0.02626720524251466,0.001069014166846527,0.1593139197432326,-1.0457536743810285,12.341812805481295
1777262997.2746103,-0.2919243572,0.1292124204,9.0747797105,-0.2513710455184833,-0.001832595714594046,-1.434617011908039,0.13358189889050487,-1.0459412711308662,12.194955816483407
1777262997.3764946,0.8602197247000001,0.8075776275,11.0739829928,-0.08246680715673206,0.02107485071783153,-0.7061602153569058,0.12517982060301905,-1.0437940733462865,12.12300913129575
1777262997.4791977,-0.39960137419999997,-0.32303105099999996,9.741180804599999,-0.5253441048502933,-0.04199698512611356,1.3159564393880747,0.07122535536679603,-1.0481072936776705,12.258161929824976
1777262997.580796,0.490528633,0.0023928226,10.7186488367,0.24480424420785463,-0.13026701204572677,0.19364428050877086,0.09609704130116557,-1.061342195799952,12.277835852323278
1777262997.6822915,-0.5443671415,-0.3493520996,9.4707918508,0.2948951937400919,0.0632245521534946,0.8927795456263995,0.12602757772883946,-1.0549251879899795,12.368448962606127
1777262997.7842977,-0.020338992099999998,0.1531406464,10.417153189099999,0.07070765132142026,-0.07131851655961828,-0.25320364123307737,0.13324019633722195,-1.062200118638175,12.342620622103539
1777262997.8863082,0.40319060809999996,-0.5694917788,10.16949605,-0.32956179600782926,0.079717913584841,0.37430767470583387,0.09962143653218687,-1.054068055330377,12.380803930853371
1777262997.9879405,-0.7752745223999999,-0.4725824635,9.8811609267,-0.22388210979957263,0.059101211795657985,0.2748893571891069,0.07686777010289791,-1.0480614598950873,12.408741584040765
1777262998.0900137,-0.1710868159,-0.0538385085,10.600204118,-0.046883907031697675,0.024892758456569127,-0.5635231822376692,0.07208218003077806,-1.0455205765668933,12.351220973727663
1777262998.1920137,0.0729810893,0.4594219392,10.2963156478,0.4150829293555514,-0.24984388242298827,-0.5745187565252333,0.11442063803333644,-1.0710046520974987,12.292620061657898
1777262998.2931068,0.044267218100000005,-0.34456645439999994,10.5332050852,0.06307183584394509,-0.10216721108861807,0.42974369507230376,0.1207967625286926,-1.0813330474664897,12.336064164151681
1777262998.3964355,0.215354034,0.0490528633,10.7593268209,0.36514469613286366,-0.1357647991895089,-0.6218608124855797,0.15852669105710018,-1.0953614483287877,12.271808091810536
1777262998.4974632,-0.4630111731,0.4510470601,10.5188481496,0.2437352300410081,0.11560624632897441,0.3830125043501556,0.18315070736893804,-1.0836820120204786,12.310502974586282
1777262998.5989792,-0.4749752861,-0.2261217357,10.8729858944,0.1719585645527413,0.02229658119422756,0.375834837801329,0.20060725444858396,-1.0814185520971853,12.348656227128918
1777262998.70078,-0.1950150419,-0.06340979890000001,9.8680004024,-0.1586722456219345,-0.010079276430267254,-0.26725354171163174,0.18445431192167355,-1.0824446292933125,12.321449634807365
1777262998.801809,-0.7441678286,-0.9056833541,11.3694965839,-0.16646077740895918,0.007635815477475192,0.9509644595647604,0.16763691980018827,-1.0816731892877398,12.417524773101391
1777262998.9032521,-0.5802594805,-0.4235296002,9.2925265671,0.48487428281967465,-0.09605855870663792,-0.3361285973184579,0.21682404702724756,-1.091417662681699,12.383426862226822
1777262999.0099196,0.107677017,0.1495514125,11.1003040414,0.027641652028460195,-0.05635231822376691,-0.3984368516146555,0.21977251345956267,-1.0974286246348717,12.340926591940026
1777262999.1121125,-1.2586246876,0.0071784678,10.2029955664,-0.22892174801470627,-0.0319177086958463,2.532189128640323,0.19637834102760554,-1.100690387168747,12.59969828846723
1777262999.215997,-1.1988041226,-0.19860427579999998,9.9122676205,0.2115120887260628,0.08002334620394001,2.108095937021351,0.21835115983997255,-1.0923772051776421,12.81869669343901
1777262999.3171666,-0.23688943739999999,-0.2572284295,9.6143612068,0.2393064570640725,0.0795651972752915,2.3267856922962404,0.2425616950717393,-1.0843276270948403,13.054096639061983
1777262999.4187224,-0.47138605219999996,0.4402793584,10.815558152,0.010537425358915765,-0.007330382858376184,1.653459483492478,0.2436318319898507,-1.0850720701683092,13.22201507982129
1777262999.519831,-0.9774680320999999,0.5216353268,9.3595255999,-0.021685715956029545,-0.31322115088603236,1.0826059183964327,0.24143922067158835,-1.116741406884901,13.331475795561866
1777262999.6212924,0.0083748791,-0.09930213789999999,9.6323073763,0.03436116964863836,-0.016493361431346415,2.006539591170931,0.24492555341134079,-1.1184148465999824,13.53506213275123
1777262999.7238245,-0.4331008906,0.4103690759,10.1491570579,-0.24449881158875564,0.0436768645311581,-0.016493361431346415,0.21985656498738393,-1.1139365638459213,13.533371032969976
1777262999.8271155,0.2847458894,0.0945164927,10.9603239193,-0.3094032431472948,-0.11026117549474176,0.574060607596585,0.1878979838636325,-1.1253255547498446,13.592666347108269
1777262999.9282875,-0.32901310749999996,-0.37567314820000003,9.2985086236,0.19288069896102333,-0.07024950239277176,1.0477865998191458,0.20741210422336664,-1.132432835324253,13.698672981936562
1777263000.0299382,0.5060819799,0.1603191142,10.534401496500001,-0.17898351479201852,0.037568212149177944,0.8355109295453356,0.18921830199404893,-1.128613999702741,13.78360326521011
1777263000.131079,-0.1471585899,1.1018948073,10.1587283483,0.059253928105207486,-0.009010262263420726,-0.43737951054977897,0.1952112879843707,-1.1295253042734341,13.739366378931033
1777263000.2337158,-0.705882667,0.3565305674,9.8632147572,-0.006414085001079161,0.06001750965295501,0.07024950239277176,0.19455296673438155,-1.1233652982913926,13.746576564049962
1777263000.336394,0.0334995164,0.2572284295,9.5856473356,0.048258353817643214,0.0016798794050445422,-0.258243279448211,0.19950805241451383,-1.1231928111316412,13.7200605834009
1777263000.4375198,-0.538385085,-1.1581261384000001,9.6035935051,0.24007003861182005,-0.09239336727744982,-0.377667433515923,0.22378530723850387,-1.1325361566586856,13.68186869333746
1777263000.5388477,-0.1830509289,1.2311072277,10.0845508477,-0.03145955976719779,0.03436116964863836,0.34086280291449256,0.22059757623449008,-1.1290544116300296,13.716407604021725
1777263000.6399276,0.3792623821,0.46540399569999996,9.8955178623,0.536186962828308,-0.14401147990518212,0.12476922490194463,0.27479532269270807,-1.143611083492775,13.729019269887964
1777263000.7409682,-0.1974078645,-0.0370887503,10.1120683076,-0.5575672461652385,-0.1511891464540088,-0.9469938355164733,0.21845839263504005,-1.1588873258255856,13.63333444291245
1777263000.8419983,0.20578274359999998,0.1603191142,8.5495551498,0.4784601978185955,0.08811731061006371,0.4043927876870862,0.26679727967942873,-1.1499848241260604,13.674190291266596
1777263000.943203,-0.0681954441,-0.2440679052,10.6349000457,-0.30100384612207204,0.06643159465403417,0.04673119072214818,0.23633429568650988,-1.1432616389221437,13.678919704306592
1777263001.0445576,-0.19860427579999998,0.2715853651,9.9026963301,-0.026572637861613665,-0.039706240482871,-1.0859656772065218,0.23364103663169974,-1.147286049004044,13.568852088566622
1777263001.1461148,-0.2883351233,0.2739781877,10.834700732799998,-0.33673946255665593,-0.09743300549258344,0.09315694882519734,0.19944270123456156,-1.1571810775679325,13.578312852554038
1777263001.2472382,0.5443671415,-0.23928226,10.396814197000001,0.20799961360642424,-0.016493361431346415,0.23839015920677548,0.2204763154204327,-1.1588489412478695,13.602419660002015
1777263001.348909,-0.6687939167,0.071784678,10.0079805245,-0.007330382858376184,-0.0517708289372818,0.9311113393233249,0.21973102995582158,-1.1641125198416855,13.697086440788139
1777263001.449999,-0.1423729447,0.14476576730000001,9.1202433399,-0.18005252895886503,0.09789115442123195,0.6873761092823167,0.20152948509017865,-1.1542166841683377,13.766573424198027
1777263001.5514798,0.5682953675,-0.0981057266,9.8500542329,0.3416263844622401,-0.09346238144429636,1.0774135638717497,0.2361979773856566,-1.163701314157087,13.875910131012777
1777263001.653018,0.5156532703,0.610169763,10.7461662966,-0.03298672286269283,-0.01634064512179691,0.21380283336930536,0.23284856553896896,-1.1653605135441036,13.897619281870938
1777263001.7542315,-0.8781658942,0.466600407,10.4793665767,-0.001069014166846527,0.11667526049582093,1.1607966688857787,0.23274036692148448,-1.1535514072929387,14.015107523513745
1777263001.8556397,-0.6293123438,0.2931207685,9.7926264905,0.22479840765686965,0.04245513405476207,0.8136724972797564,0.2555367785114765,-1.1492461067345028,14.097620621986216
1777263001.9567773,0.2225325018,-1.3004990831,9.0305124924,0.24526239313650317,-0.08139779298988555,-0.5041165378229121,0.28034203766610405,-1.1574784872634047,14.04663546602767
1777263002.0587072,-0.5240281494,-0.040677984199999996,9.5928258034,-0.11087204073293978,-0.037720928458727446,0.5936082952189213,0.26904086130541344,-1.1613233778434193,14.107141901997373
1777263002.1634998,0.3672982691,-1.531406464,9.6012006825,0.2528982086139784,0.012675453692608817,0.09483682823024188,0.2955427208340788,-1.1599950841593134,14.117080099320622
1777263002.2651598,0.32901310749999996,-0.179461695,10.2472627845,-0.15683964990734045,-0.13683381335635544,0.42500948947626915,0.27959839995439517,-1.17390561143117,14.160286569630417
1777263002.3663483,-0.7824529901999999,0.095712904,10.7413806514,-0.09590584239708841,0.15088371383490978,-0.1824959899116571,0.269893839173641,-1.1586379266359708,14.141820088526911
1777263002.4700925,0.34337004309999997,-1.6725829974,10.3716895597,0.15332717478770186,-0.025350907385217634,-0.6212499472473816,0.2858006547504916,-1.1612679379763664,14.077368967245409
1777263002.5713344,-0.2105683888,-0.4043870194,10.3561362128,-0.17287486241003833,-0.04214970143566306,-1.5668693359779096,0.26829848783580534,-1.1655352507576857,13.918736252983322
1777263002.6736062,-1.5876377951,-0.2739781877,10.5487584321,-0.058948495486108476,-0.008246680715673207,1.6271922782499635,0.2622697193738089,-1.1663786535995193,14.085152128534027
1777263002.775239,-0.4271188341,-0.19860427579999998,10.875378717,0.16096299026517705,-0.09651670763528643,0.8458956385947017,0.2786288441600069,-1.1761879200747347,14.171122899113486
1777263002.8769257,1.3483555351,0.9463613382999999,11.1278215013,0.24587325837470117,-0.15683964990734045,-0.5931501462902729,0.30363088837594876,-1.192136429024904,14.110807408595027
1777263002.9783735,-0.5515456093,-0.1100698396,10.143175001400001,-0.2817615911188346,-0.0277943683380097,1.7232508369566013,0.2750467890102763,-1.1949561071195123,14.285627450460744
1777263003.0794585,0.47856452,-0.33858439789999994,10.1958170986,-0.09086620418195478,-0.002748893571891069,1.1895073350810854,0.2658615835231992,-1.1952339788821464,14.405868737080649
1777263003.180929,0.12323036389999999,0.24167508259999998,10.224530969800002,-0.00992656012071775,0.02336559536107409,1.0823004857773337,0.2648543307980135,-1.192863060929017,14.515690276517432
1777263003.2819078,-0.8913264185,-0.056231331100000004,10.8789679509,-0.417984539236992,-0.0757472895365539,0.8458956385947017,0.22264673215702835,-1.2005119352168974,14.601107846437936
1777263003.3834558,0.5694917788,0.5467599640999999,10.450652705500001,0.16355916752751862,0.08353582132357859,0.3349068668420619,0.2392558313808384,-1.1920290432697227,14.635116954372403
1777263003.484907,0.34576286570000003,-0.0693918554,10.061819033,-0.14859296919166723,0.02748893571891069,1.3098477870060943,0.22418090250788816,-1.1892402588944595,14.768002529853693
1777263003.58889,0.394815729,-0.4689932296,10.3262259303,0.13637566442770693,-0.04245513405476207,-0.8457429222851522,0.23836167556499294,-1.193654878054454,14.680059505004593
1777263003.6899855,0.040677984199999996,0.2440679052,9.9349994352,0.0012217304763960308,-0.02138028333693054,2.533716291735818,0.23848518694262646,-1.1958163271630409,14.93620666329433
1777263003.7914908,0.1543370577,0.08853443620000001,9.7794659662,0.12095131716320703,0.07925976465619249,1.4888313017981127,0.2507623842021318,-1.187771042595259,15.087330900772761
1777263003.8926692,-0.9918249677,-0.6436692794,11.076375815399999,-0.21975876944173603,-0.09101892049150428,2.091144426661356,0.22852754183870327,-1.196980192038347,15.298909564068401
1777263003.9942756,-0.33140593009999997,0.1339980656,10.6779708525,-0.4317290070964473,-0.002596177262341565,2.4599543142234075,0.18466112502764742,-1.197243980183302,15.548856589888171
1777263004.0961561,-0.8231309743999999,-1.040877831,9.309276325299999,-0.03558290012503439,0.000916297857297023,1.5940528390777209,0.18103591957863147,-1.1971506272532844,15.711259570475418
1777263004.1971793,-0.1519442351,-0.897308475,11.0943219849,-0.42730023411951173,-0.03405573702953935,0.44119741828851655,0.13786868377464878,-1.200591046690128,15.75583074425587
1777263004.298635,-0.2919243572,-0.1040877831,10.503294802700001,0.049480084294039245,-0.10384709049366261,0.7249443214314948,0.1428887197925789,-1.2111269247524503,15.829380469493877
1777263004.4001555,-0.6867400861999999,-0.2524427843,9.7088776995,0.278554548618295,-0.1482875365725682,0.4784601978185955,0.17116772752260012,-1.2261811552929387,15.877954006345936
1777263004.5015178,-0.107677017,-0.3960121403,9.990034354999999,0.5287038636603822,-0.040622538340168025,0.18157969205436006,0.2247583293034986,-1.2302987463021007,15.896359328563582
1777263004.6026676,-0.0765703232,0.370887503,8.9623170483,0.16096299026517705,-0.08704829644321718,1.0137308627896064,0.24103970316408957,-1.239103663854792,15.998897999992996
1777263004.7097087,-0.502492746,-1.0875378717,10.5068840366,0.16142113919382553,-0.1359175154990584,0.9563095303989929,0.25831840278049256,-1.2536524270133529,16.101262443699632
1777263004.8117347,0.4366901245,0.4570291166,10.5810615372,-0.06673702727313317,0.013286318930806833,-0.10262536001726658,0.2515094917890772,-1.2522968772278766,16.09079199018423
1777263004.9129443,-0.5168496816,-0.9415756931,9.2889373332,0.012522737383059314,-0.17547103967237992,0.6907358680924058,0.25277691353772924,-1.2700562380717935,16.16070111907634
1777263005.0157878,-0.2297109696,0.1088734283,9.811769071299999,-0.1757764722914789,-0.1192714377581625,-1.214247377228105,0.23469944186227715,-1.282322532927161,16.035823640977714
1777263005.117855,-1.5014961814999999,-0.4749752861,8.9599242257,0.6340781172495399,-0.21334468444065688,-0.29123000231090385,0.2994180402453808,-1.3040980343580848,16.006098600728055
1777263005.2219055,0.7692924659,0.16271193679999998,10.048658508699999,0.006414085001079161,-0.00717766654882668,-0.24969116611343878,0.30008542834173385,-1.3048448734182894,15.980118135548597
1777263005.328013,1.2059825904,0.08614161359999999,10.475777342799999,-0.297949519931082,-0.014660765716752368,-1.737148021125606,0.2684707575890254,-1.3064004902262134,15.795793748151334
1777263005.4293225,-0.6687939167,-0.6197410534,10.0008020567,0.056505034533316414,-0.002138028333693054,0.44425174447950666,0.27419525652591703,-1.3066170928886904,15.8408006870903
1777263005.531018,0.1842473402,1.3495519463999999,9.621539674600001,-0.4634939994827441,0.0957531260875389,-0.8009970435871475,0.22705998508937628,-1.2968794272574842,15.759342862153018
1777263005.6322072,-0.1220339526,-0.5730810127,9.554540641800001,-0.07864889941799447,0.012064588454410803,-0.734107300004465,0.21910157087019083,-1.2956586219694926,15.685059178363456
1777263005.7347665,0.8374879099999999,0.5012963347,9.9708917742,-0.33673946255665593,-0.11881328882951399,-1.1589640731711846,0.1845657978526213,-1.3078440330387302,15.56619660175106
1777263005.8359053,-0.4510470601,-0.0287138712,9.9050891527,-0.013439035240356337,-0.19700403931885993,-0.7663304413194102,0.18320658954959754,-1.327768791117147,15.488690837380908
1777263005.9374063,1.0492527101,0.801595571,9.937392257800001,0.08720101275276669,-0.15729779883598893,-0.0914770694201528,0.19205757849917876,-1.343734673110262,15.479405824454815
1777263006.0385,0.09092725880000001,0.1160518961,9.6681997153,-0.14569135931022667,-0.09178250203925181,0.1673770752662562,0.17732908986506837,-1.353013312176405,15.496326603849978
1777263006.1405327,-1.1712866627,-0.0346959277,10.731809361,-0.4431827303126601,0.0022907446432425577,-0.5390885727097485,0.13210997638791347,-1.3527795814037802,15.441321962025595
1777263006.2444227,0.42831524540000004,-0.6747759731999999,11.3850499308,0.10506882097005864,-0.09850201965942997,-0.1996002165812015,0.1430255701222778,-1.3630129505297468,15.420585507068017
1777263006.3460414,0.1710868159,0.023928226,9.6502535458,-0.12003501930591003,-0.038179077387375956,-0.1518000116922068,0.1308277594894374,-1.3668926612908283,15.405159777081957
1777263006.4484847,-0.9427721043999999,-0.5970092387,9.7052884656,0.10522153727960813,-0.017256942979093935,0.259465009924607,0.14160699239559477,-1.368660518066439,15.431740207717025
1777263006.550325,0.31345976059999997,-0.7633104094,10.5571333112,-0.1235474944255486,0.031001410838549282,-0.5907066853374808,0.12902488373194554,-1.3655033263992935,15.371582486689837
1777263006.6548533,0.37567314820000003,0.7597211755,10.500901980099998,0.5661193595000107,-0.010537425358915765,-0.4732678432939124,0.18820044994494123,-1.3666047868979978,15.322112543421946
1777263006.7573352,-0.0095712904,-0.8865407733,10.0713903234,0.10552696989870715,0.022907446432425576,-0.6963863715457375,0.19901504820516755,-1.3642571895911468,15.25074558529368
1777263006.860398,-0.8350950873999999,0.4725824635,10.0654082669,-0.21868975527488949,0.11071932442339028,0.24877486825614176,0.17647625479845136,-1.3528461384599533,15.276385036731908
1777263006.961706,0.6664010940999999,0.1483550012,9.8153583052,-0.16417003276571662,-0.01069014166846527,-0.63713244344053,0.15984453863227044,-1.3539291339312394,15.21183850664325
1777263007.063412,1.0983055734,-0.4701896409,10.4015998422,-0.30039298088387406,-0.012522737383059314,0.27977627909469105,0.129292761712112,-1.3552027718099648,15.240293440714288
1777263007.1651902,-1.2000005339,0.0669990328,8.9802632178,0.38347065327880414,-0.1438587635956326,3.3195944206775647,0.16832174094383562,-1.3698444677224633,15.578156014015752
1777263007.267943,-0.16749758199999998,-0.215354034,10.8670038379,0.22831088277650824,-0.04214970143566306,1.8874208697223178,0.1917812972886996,-1.3741754627399767,15.772093577136939
1777263007.369158,-0.4414757697,-1.1892328322,10.450652705500001,-0.5262604027075902,-0.20051651443849852,1.1716395268637934,0.13851578530381603,-1.3944707666390341,15.890681217284364
1777263007.47416,1.1808579531,0.8482556117000001,11.1015004527,0.7787004623929201,0.03252857393404432,1.1514809740032588,0.22028083396086756,-1.391055203712195,16.011588937793125
1777263007.5753055,0.1088734283,-0.3278166962,10.2352986715,0.12186761502050406,-0.11239920382843482,1.3587170060619356,0.23260719553557066,-1.4024238780467584,16.14901705675319
1777263007.6769829,0.7633104094,0.8937192411,10.699506255900001,0.38453966744565066,-0.021227567027381034,1.2676980855704314,0.27170619594585965,-1.4045822422473264,16.27791332458711
1777263007.778522,-0.6831508522999999,-0.693918554,9.5413801175,-0.04459316238845512,0.020158552860534508,0.140346288475994,0.26717824481094676,-1.4025353602274342,16.29216396531651
1777263007.8796098,-0.4941178669,-0.7190431913,10.4554383507,0.011301006906663283,0.10186177846951905,0.04214970143566306,0.26832063883421664,-1.3922383762609343,16.296424786268165
1777263007.9815981,-0.0382851616,0.2285145583,9.0161555568,-0.24434609527920614,-0.03665191429188092,0.5491678491400158,0.24340019215758424,-1.395976443262429,16.352433490173897
1777263008.0844157,-0.1112662509,-0.1890329854,9.7806623775,0.16340645121796912,-0.11606439525762292,-0.49724430389318447,0.26020124074034,-1.4079098983305547,16.30130805635572
1777263008.1857915,-1.3435698899,-0.2620140747,9.589236569499999,-0.19272798265147384,0.037568212149177944,0.5711589977151443,0.240663283798881,-1.4041013900836459,16.359209767101405
1777263008.288137,0.2021935097,0.33499516399999996,9.9864451211,0.4854851480578727,-0.09101892049150428,-0.3920227666135763,0.290350487810919,-1.4134167639720305,16.319088014129118
1777263008.391202,-1.2837493249,-0.1052841944,9.6586284249,0.04459316238845512,0.036041049053682904,1.0925324785171504,0.2949464827116834,-1.4097021927508648,16.431689889197845
1777263008.4922366,0.1160518961,0.5156532703,9.834500886,0.3459024411296262,0.019394971312786988,1.0158688911232996,0.3298946117642036,-1.4077426287819155,16.534327838185643
1777263008.5938172,-0.9164510558,-0.7238288365000001,9.888339394499999,-0.5781839479544215,-0.0006108652381980154,0.26419921552064163,0.27116232796563755,-1.4078046808514333,16.561165358252076
1777263008.6954834,-0.3900300838,-0.4701896409,9.6179504407,0.49159380043985285,0.04230241774521256,0.757778327984638,0.32114080753930735,-1.403503954277371,16.638205810456036
1777263008.7989862,-1.328016543,-0.5096712138,8.9228354754,-0.14172073526193954,-0.21227567027381034,0.030390545600351263,0.30647232165145,-1.4254750699930194,16.64135131551173
1777263008.900302,-1.6725829974,-0.5000999234,10.948359806300001,-0.09392053037294486,0.01634064512179691,0.33719761148530447,0.2969566939188268,-1.4238195054931972,16.67551473995666
1777263009.006225,-1.4620146086,-0.6867400861999999,12.015558685899999,0.5086980271093973,0.024434609527920613,0.6478225851089953,0.3508396044794348,-1.4212313140522794,16.744134165533996
1777263009.1089962,-0.2620140747,1.2741780345,10.688738554199999,0.10155634585042005,-0.16340645121796912,-0.2852740662384731,0.3612766561447078,-1.4380247656039216,16.714816251984026
1777263009.2104547,0.04307080679999999,-0.2787638329,10.2388879054,-0.218842471584439,-0.06093380751025203,0.5749769054538819,0.33907321640886245,-1.4442070213293943,16.773152574807096
1777263009.3115888,0.3206382284,0.4462614149,11.2606231556,0.5557346504506444,-0.10048733168357353,-0.5578726787843376,0.3952769188993609,-1.4543697133433398,16.71673264482694
1777263009.413216,-0.6855436748999999,-1.5110674719,10.0031948793,-0.3975205537573585,-0.03512475119638588,-0.9405797505153941,0.3548779585086986,-1.4579393487216925,16.62114401745618
1777263009.5144973,0.0143569356,1.3890335193,11.059626057200001,0.46257770162544715,-0.009621127501618741,0.7898487529900339,0.4017283675303852,-1.4589137877340286,16.70114082018321
1777263009.6174016,0.095712904,0.7645068207,10.7988083938,0.5187773035396646,-0.03023782929080176,-0.6023131248632431,0.45511279305971303,-1.4620253909883139,16.63916019778472
1777263009.7185643,0.1304088317,-0.8362914987,10.0917293155,-0.3107776899332403,0.04169155250701455,0.2834414705238791,0.42367369153476314,-1.4578077621350896,16.667833894310668
1777263009.8209157,0.0191425808,-1.220339526,9.646664311899999,0.2703078679026218,0.020463985479633514,-0.11820242359131597,0.45134008756507477,-1.4557132440175404,16.65573570757199
1777263009.9244587,-0.4570291166,1.1174481541999999,9.0532443071,-0.21670444325074595,-0.07086036763096977,-0.19181168479417682,0.42890185004967063,-1.463050342119829,16.635874942019242
1777263010.0283833,0.1926222193,-0.1782652837,10.8215402085,-0.6711881804700693,-0.061850105367549056,0.9891435369521363,0.3591489453548085,-1.4694780841906867,16.738671202248735
1777263010.1303535,-0.5694917788,-0.24167508259999998,10.0187482262,0.4289801135245563,-0.08842274322916273,-0.2643519318301911,0.40289213151245745,-1.4784945686283082,16.711715184007762
1777263010.2317054,-0.28115665549999996,-0.2679961312,9.09272588,-0.01710422666954443,-0.0954476934684399,-1.0624473655358981,0.401158584334797,-1.4881683810036457,16.604034043695407
1777263010.3327785,-1.0504491214,0.015553346899999999,10.022337460100001,0.14538592669112765,0.05238169417547982,0.35475998708349743,0.4158531799788172,-1.482874004631903,16.63989070932677
1777263010.4339583,-0.3553341561,0.2009970984,10.1527462918,-0.022602013813326566,0.05085453107998478,0.598342500814956,0.41356631187863047,-1.4777285514064828,16.700430906735768
1777263010.53497,0.35174492220000003,-0.34097722049999996,10.7018990785,0.12217304763960307,0.03283400655314333,-0.140346288475994,0.42590722560011113,-1.4744119308438348,16.68625428209822
1777263010.6359608,-0.18185451760000002,-0.5623133109999999,8.918049830200001,-0.5325217713991199,-0.11881328882951399,-0.47968192829499157,0.3721274406680062,-1.4864109766359705,16.637810833726626
1777263010.7371993,-1.3639088819999998,0.2344966148,10.508080447900001,0.4347833332874374,-0.11163562228068731,0.46257770162544715,0.41614424843806247,-1.4977127983710992,16.68464150135413
1777263010.8383026,0.1280160091,-1.2693923893,11.8420790474,0.439212106264373,-0.010079276430267254,1.3535246515372523,0.46055004433608454,-1.498731846538439,16.821487318128874
1777263010.9393277,-0.3732803256,0.3182454058,9.667003304,0.19379699681832036,-0.060781091200702526,2.827084322380415,0.4801284061958417,-1.504872262629994,17.107093807291857
1777263011.0403988,-1.4584253747,-0.2309073809,9.8919286284,-0.25350907385217636,0.017715091907742442,2.5112669942320407,0.45450596034674823,-1.503081778462226,17.36091037328131
1777263011.1414948,-0.1304088317,-0.36011980130000004,10.6492569813,-0.198836635033454,0.0517708289372818,1.2005029093686497,0.4344043888241952,-1.4978479591487501,17.482276313172854
1777263011.2427979,-0.2907279459,0.622133876,10.3238331077,-0.20784689729687472,-0.07483099167925687,1.08336949994418,0.4133488536808549,-1.5054285706257793,17.592025002597435
1777263011.346013,-0.8662017812,0.4941178669,9.9589276612,0.00519235452468313,-0.028099800957108706,1.3513866232035594,0.4138847836829262,-1.5083288976958122,17.731508666960053
1777263011.4471102,0.3768695595,0.6400800455,10.8095760955,-0.079717913584841,-0.037110063220529434,-0.20357084062948863,0.40582553324871656,-1.5120806177255306,17.71092824391637
1777263011.5481818,0.4689932296,0.7824529901999999,11.6733850541,-0.0006108652381980154,0.03634648167278191,1.029002493744557,0.405763792124062,-1.5084070208085847,17.814931168396967
1777263011.649376,0.28953153460000003,-0.1040877831,8.9455672901,0.23823744289722598,-0.09178250203925181,1.0306823731496013,0.4298720260589069,-1.5176948724719448,17.919230188157396
1777263011.7506433,0.1651047594,0.7836494015,10.0390872183,-0.36254851887052214,0.01679879405044542,1.2956451702179905,0.3931577027298924,-1.5159937033202213,18.0504367252776
1777263011.851611,0.454636294,1.2490533972,9.978070242000001,-0.5076290129425508,0.004886921905584123,0.11972958668681101,0.3419035964319159,-1.515500282320963,18.06252553975943
1777263011.954513,-0.7489534738,0.502492746,9.9218389109,-0.09834930334988047,0.16554447955166215,0.16890423836175125,0.33178323930622394,-1.4984653954820653,18.07990615308399
1777263012.0554812,-1.0660024683,-0.4618147618,9.9912307663,-0.0024434609527920616,0.05528330405692039,0.4807509424618381,0.33153652764146174,-1.49288354406682,18.128446673125957
1777263012.1568406,-0.47138605219999996,-0.5635097223,10.6923277881,0.4254676384049177,-0.02199114857512855,1.189965484009734,0.3746616583068497,-1.495112552974148,18.24906082177804
1777263012.2585795,-1.3268201317000001,0.21296121140000002,10.394421374399998,-0.16829337312355322,0.05268712679457882,0.6679811379695297,0.3575396706414885,-1.4897522210825422,18.31702050784727
1777263012.359671,0.2596212521,1.1665010175000001,11.0368942425,-0.5697845509291989,0.02336559536107409,-0.018478673455489966,0.2999392254532192,-1.4873901551179738,18.31515246875111
1777263012.4614244,-0.981057266,-0.36370903520000003,9.9924271776,-0.3034473070748641,-0.028252517266658207,-0.8057312491831822,0.26906248034780034,-1.490264940142887,18.233166707716286
1777263012.5625262,-0.3900300838,-1.1341979124,10.0283195166,0.16569719586121168,-0.079412480965742,-0.3689626038716013,0.2858147775821778,-1.49829369089116,18.195863896547387
1777263012.6656847,0.12083754129999999,0.5467599640999999,9.4923272542,0.008857545953871221,-0.1510364301444593,-1.7918204599443284,0.2867285085058851,-1.5138743785385131,18.011022432273982
1777263012.7667236,-0.3613162126,-0.24047867129999997,10.137192944899999,-0.15714508252643944,-0.03436116964863836,0.8130616320415585,0.2708507370725997,-1.5173461944495814,18.093173311876328
1777263012.869257,0.33858439789999994,0.49292145559999995,10.524830206099999,0.06215553798664806,-0.12339477811599911,1.497688847751984,0.27722375201009253,-1.5299982732444075,18.246736352397193
1777263012.9702318,-0.0550349198,-0.1806581063,10.965109564499999,0.1580613803837365,0.11988230299636052,0.876591616814152,0.2931839679979512,-1.5178931818912973,18.335250014011017
1777263013.0731742,-0.6963113766000001,-0.4989035121,9.7112705221,0.28588493147667116,-0.18509216717399865,-0.2680171232593792,0.3226136680467663,-1.536947026153671,18.30765967021525
1777263013.1742284,-0.20937197749999997,-0.1890329854,8.9479601127,0.33979378874764604,-0.059559360724306495,1.1814133706749617,0.3569512546757439,-1.5429657492032447,18.427046443321665
1777263013.275618,-0.08614161359999999,-0.11246266220000001,10.2352986715,0.015729779883598895,-0.017715091907742442,0.636521578202332,0.3585460914981391,-1.54476187611002,18.491583141144414
1777263013.3773746,0.031106693799999998,0.5826523031,10.0917293155,0.4566217655530165,-0.013591751549905842,0.2936734632636959,0.40501035739171676,-1.5461449261650462,18.521466346265935
1777263013.4789505,-0.43190447930000003,-1.0325029519,10.5667046016,-0.1960877414615629,-0.018631389765039467,-1.2704469791423225,0.38509257809572767,-1.5480374254439486,18.392419612649633
1777263013.5803394,0.24885355039999998,0.2117648001,10.8825571848,-0.5187773035396646,-0.058643062867009474,0.3978259863764575,0.3324943017204188,-1.553983182914693,18.43275476424153
1777263013.6814344,-0.7106683122,-0.7645068207,10.121639598,-0.4897612047252588,-0.02138028333693054,-0.8382598231172266,0.28298191174791837,-1.5561446218283663,18.348010919976154
1777263013.7829678,0.191425808,0.1830509289,8.8474615635,-0.0875064453718657,-0.03634648167278191,-0.8249735041864197,0.2740970836956471,-1.5598350041607234,18.264248544516523
1777263013.8845046,-0.4103690759,-0.16271193679999998,10.083354436399999,-0.2718350309981168,0.05009094953223726,0.5032002399656151,0.24649583789625967,-1.554748931901061,18.31534186188112
1777263013.986162,0.0921236701,-0.0502492746,11.7308127965,0.4117231705454623,0.13881912538049898,0.36697729184745775,0.28835054106119845,-1.5406369418502712,18.35264781577776
1777263014.0872252,-0.4390829471,-0.20578274359999998,9.095118702599999,0.4546364535288729,-0.02626720524251466,-0.11988230299636052,0.3342975793031461,-1.5432915910197758,18.340532120440198
1777263014.188712,0.7334001269,-0.2105683888,10.9854485566,0.0319177086958463,-0.10186177846951905,-0.6272058833198123,0.33753680168419575,-1.5536292050301113,18.27687907585182
1777263014.289962,-0.2069791549,-0.2309073809,9.6993064091,0.33964107243809655,-0.05696318346196493,-0.654083953800525,0.3719255185718072,-1.5593967371340136,18.210652963248563
1777263014.3921704,-0.7836494015,-0.6532405698,8.7900338211,0.012064588454410803,-0.07880161572754397,-0.4634939994827441,0.37315862056400584,-1.5674509222982478,18.163279994307768
1777263014.4931977,-0.4139583098,0.33738798659999997,9.4325066892,-0.22953261325290425,-0.061850105367549056,0.36713000815700725,0.34996957179520594,-1.573699468373673,18.200370129530786
1777263014.6001282,-0.8303094421999999,-0.0179461695,9.5557370531,-0.34529157589142817,-0.07834346679889546,1.7806721693472147,0.31304737290458434,-1.5820767740043182,18.390778284800422
1777263014.701592,-0.5754738353000001,0.1734796385,9.456434915200001,0.24388794635055763,-0.006719517620178169,1.4978415640615335,0.3377931694249145,-1.5827585617606705,18.54275497376185
1777263014.803379,-0.2165504453,0.933200814,9.8273224182,0.3356704483898095,0.10598511882735566,1.728901340409933,0.3719600876667176,-1.5719706448999737,18.718734810620564
1777263014.9048336,-0.34097722049999996,-0.5766702466,10.0701939121,0.03405573702953935,-0.11850785621041497,0.9810495725460127,0.37541519531602413,-1.5839937997693094,18.818266700930632
1777263015.0064962,0.0,-0.35772697870000003,10.7222380706,-0.35140022827340833,-0.1392772743091475,2.161699361673227,0.3396909218878953,-1.5981530945830658,19.038030755852475
1777263015.1075454,-0.9104689993,-0.35413774480000004,10.28913718,-0.2231185282518251,0.1113301896615883,1.8623753949561992,0.31714497649445234,-1.5869032696742225,19.226222271302877
1777263015.210496,-0.2285145583,0.0765703232,10.3477613337,0.1742493091959839,0.09666942394483594,2.35458006063425,0.33508404271537506,-1.5769510970906606,19.468627637643092
1777263015.31169,-0.6927221427000001,0.4486542375,9.5856473356,0.6137668480794559,-0.059712077033856004,0.5232060765166001,0.39719365308982485,-1.582993609570484,19.52157302832308
1777263015.413112,-0.24047867129999997,0.5419743189,9.510273423700001,-0.1357647991895089,0.1272126858547367,-0.8387179720458751,0.38342413829394406,-1.5700914657853673,19.436508714195995
1777263015.5141437,0.3960121403,0.2201396792,9.882357338,-0.3634648167278191,0.017256942979093935,1.2417363129470156,0.3467026408042659,-1.568347966114639,19.561963544485312
1777263015.616219,0.0753739119,-0.4749752861,9.6574320136,0.7243334561932967,-0.07024950239277176,-0.47189339650796686,0.42063922343330684,-1.575518707841259,19.513794866365192
1777263015.7171988,0.1507478238,-0.4354937132,9.8919286284,-0.18478673455489963,0.01313360262125733,-0.3498730651779133,0.40197949501271973,-1.574192479209713,19.478464752471336
1777263015.8188334,0.8362914987,-0.5682953675,9.9038927414,-0.5320636224704713,-0.0517708289372818,-0.26984971897397325,0.34790347349199846,-1.5794541816481529,19.451038710557697
1777263015.923127,0.0370887503,-0.3852444386,11.193624122800001,0.9123272332487359,0.010231992739816757,0.15088371383490978,0.44305335117971345,-1.5783870504454283,19.46677491396504
1777263016.0244408,0.3182454058,0.04307080679999999,10.3262259303,-0.6308710747490004,0.08613199858592016,0.32834006553143325,0.37913738672532127,-1.5696606878329187,19.5000403033567
1777263016.1259372,-1.3495519463999999,-0.8398807326,9.6454679006,0.496786154964536,0.09758572180213294,0.37522397256313095,0.429559421864283,-1.5597560827133994,19.538124207548652
1777263016.2271943,0.7812565789,1.0229316615,9.911071209200001,-0.09728028918303396,-0.0439822971502571,-0.7446447253633807,0.41970910327581107,-1.5642096019496317,19.462723652701886
1777263016.3289242,0.04307080679999999,-0.7621139981,10.4494562942,0.32436944148314617,-0.09514226084934088,-0.25259277599487934,0.45270716433878544,-1.573888411762359,19.437027422476763
1777263016.4300725,-0.0179461695,-0.5012963347,11.582457795299998,-0.5861251960509958,-0.08307767239493008,-0.4860960132960707,0.3934215579428144,-1.582291582653294,19.387859604561605
1777263016.5315588,-0.6568298037,0.0346959277,10.7294165384,0.3477350368442202,-0.047342055960346185,0.8546004682390235,0.4287118675444213,-1.5870961482995383,19.474589763775743
1777263016.6328602,-0.311066938,-0.1639083481,10.2113704455,-0.45707991448166496,0.1476766713343702,0.5659666431904612,0.38240901782627973,-1.572136290071191,19.53192299500041
1777263016.7342408,0.6604190376,0.7369893608,9.9314102013,-0.018784106074588972,0.010842857978014772,-0.07116580025006879,0.38050467413322775,-1.5710370347686977,19.524708164423483
1777263016.8399024,-0.0538385085,-0.7334001269,11.341979124,-0.5332853529468674,0.04169155250701455,-0.03145955976719779,0.32415687414950367,-1.5666318373472898,19.521384096039565
1777263016.9414747,-0.5120640364,0.7226324252,9.1106720495,-0.6870706766632177,-0.0024434609527920616,1.5114333156114395,0.25436954232390224,-1.5668800252355337,19.674903816661477
1777263017.0444894,-0.8003991597,0.7740781111,10.4817593993,0.24159720170731505,0.024434609527920613,1.3486377296316683,0.27925760740637795,-1.5643629010805424,19.813833337991024
1777263017.1455386,-0.062213387599999996,0.0167497582,9.9385886691,-0.30405817231306215,0.002748893571891069,-0.5212207644924566,0.24853277696261006,-1.564085127626003,19.76116440463865
1777263017.2468095,0.191425808,1.0504491214,11.1230358561,0.396146106971413,0.017409659288643436,1.4256067496446183,0.2886508553239507,-1.5623220355160599,19.90553690329058
1777263017.348334,-0.9056833541,0.2177468566,9.8057870148,0.04612032548395016,-0.05696318346196493,1.3651310910630148,0.2933332025260617,-1.568105199444495,20.04413127958088
1777263017.4494755,-0.6819544409999999,-2.1726829208,10.432706536,0.36102135577502703,-0.14798210395346922,-0.5032002399656151,0.3298474269371131,-1.583072324425167,19.99323687626683
1777263017.5506792,0.311066938,0.31944181709999997,10.3298151642,-0.28955012290585924,0.08491026810952414,-0.9447030908732307,0.300543888943454,-1.5744790928194314,19.89762944692676
1777263017.6519928,-0.4642075844,-1.3555340029,10.7401842401,-0.023212879051524585,-0.04871650274629172,0.5508477285450604,0.29819210880921604,-1.579414736653786,19.953437808401738
1777263017.7530103,0.24047867129999997,0.36011980130000004,9.7256274577,0.712268867738886,-0.04046982203061852,0.10506882097005864,0.3701437114406015,-1.5835028958942057,19.964051595410826
1777263017.8540368,0.1004985492,-0.08614161359999999,9.3068835027,0.11026117549474176,-0.03787364476827695,0.45478916983842244,0.3812830159496309,-1.58732913899426,20.009997369410673
1777263017.9562025,-0.251246373,-0.4582255279,9.5030949559,0.06734789251133119,-0.30039298088387406,-0.36147950470367557,0.3881636604645732,-1.6180189978624948,19.973066563136594
1777263018.0575752,-0.08853443620000001,0.8709874264,9.7914300792,0.28283060528568105,0.05375614096142535,-1.3125966805779854,0.4168349678853534,-1.612569591700446,19.840005068924064
1777263018.1592004,0.3266202849,-0.35892339,10.052247742599999,-0.2750420734986564,-0.03237585762449481,0.15347989109725135,0.3888837610337323,-1.6158597948390043,19.855602494179966
1777263018.2602074,0.5252245607,-0.251246373,10.4374921812,0.38011089446871504,0.01038470904936626,0.7834346679889548,0.42727761633970174,-1.61481086669083,19.934734867711352
1777263018.361207,-0.6723831506,-0.1399801221,10.0510513313,0.08292495608538057,-0.013439035240356337,2.1230621353572023,0.43565300321479644,-1.616168203790293,20.14916328085604
1777263018.4624586,-0.2835494781,0.5204389155,11.0775722267,0.020922134408282025,0.037262779530078935,0.07101308394051928,0.4377714028445107,-1.6123952876614587,20.156353469380253
1777263018.5638285,-0.2177468566,0.6568298037,9.3619184225,-0.20357084062948863,0.038484510006474966,1.4066699272604797,0.41713545568009835,-1.608494118355058,20.298947399861426
1777263018.6655838,-0.6245266986,-0.3218346397,9.379864592,-0.31978795219666106,-0.09132435311060329,1.87138565721962,0.38459531088328114,-1.6177868626666612,20.489370959718254
1777263018.7669158,0.43190447930000003,-1.3160524299999998,9.7698946758,-0.21181752134516182,-0.027183503099811684,0.19394971312786988,0.36313142856345965,-1.620541420022774,20.509024262202878
1777263018.867978,-0.6460621019999999,-0.610169763,10.0366943957,0.31245756933828484,0.04612032548395016,1.0642799612504923,0.3947091084923652,-1.6158803939531114,20.616582840611745
1777263018.9689734,0.23569302609999998,-0.7561319416,9.6634140701,-0.08521570072862314,-0.06734789251133119,-0.11560624632897441,0.3861027230450661,-1.6226822147098479,20.604907152827504
1777263019.0704124,-1.0923235169,0.6161518195,9.9517491934,-0.020005836550985003,-0.004886921905584123,2.0112737967669654,0.38407335100765505,-1.6231779391770018,20.80892875384051
1777263019.1727703,0.2117648001,0.31345976059999997,10.1754781065,-0.0158824961931484,-0.05818491393836096,1.7599027512484822,0.38244765261630276,-1.6291336227068598,20.989068640974587
1777263019.2737534,-0.7932206919,0.5443671415,9.4911308429,0.3196352358871115,0.05268712679457882,2.60075875162805,0.414725423302674,-1.62381311105526,21.25170143351587
1777263019.3752654,-1.2717852119000002,-0.28953153460000003,10.564311779,-0.08078692775168753,-0.04459316238845512,1.6165021365814982,0.4065245843070524,-1.6283398501605937,21.415795726084212
1777263019.4772782,-0.1112662509,0.466600407,10.3298151642,0.0555887366760194,0.028405233576207712,0.8492553974047908,0.41219535102491034,-1.625442150683886,21.502430708825994
1777263019.5809324,-1.1198409768,-0.056231331100000004,10.3142618173,0.24449881158875564,0.10506882097005864,1.036332876602933,0.43753866658570245,-1.6145513317545763,21.609850908323516
1777263019.6820283,-0.2967100024,-0.6317051664,9.870393225,-0.1149953810907764,0.07483099167925687,0.89873548169883,0.4259131033318757,-1.6069862241923252,21.700709394045653
1777263019.7834501,-0.873380249,-0.2787638329,10.4315101247,0.3677408733952052,-0.05207626155638081,0.6957755063075395,0.46321005679473387,-1.6122678940971569,21.771276221278537
1777263019.8865144,0.11844471869999999,-0.4594219392,9.4612205604,-0.19226983372282533,0.09514226084934088,0.1195768703772615,0.4433939012344302,-1.6024621237126697,21.78360032755631
1777263019.9884586,0.5778666579,-0.2703889538,9.7794659662,-0.13240504037941983,-0.21594086170299842,0.7003569955940245,0.4298959742385247,-1.6244760438651613,21.854997666891055
1777263020.0951753,-0.4450650036,-0.1782652837,10.5702938355,-0.14981469966806327,-0.05726861608106394,1.7206546596942598,0.41390825393956104,-1.630587557740912,22.038620138459276
1777263020.1969275,-0.1603191142,-0.18185451760000002,10.311868994700001,-0.3872885610175417,-0.0317649923862968,-0.0015271630954950383,0.37450075937763455,-1.6338197181781677,22.03846474613056
1777263020.3049803,1.0241280728,0.15672988029999999,10.810772506800001,0.13805554383275148,-0.11285735275708332,0.040317105721069016,0.3894180378577509,-1.646014263307378,22.04282111949201
1777263020.4072752,-0.1603191142,-0.1519442351,10.639685690899999,-0.5988006497436046,-0.061850105367549056,1.2605204190216046,0.32816377217352966,-1.6523412150039118,22.171765957277668
1777263020.5094218,0.2799602442,0.1543370577,9.8297152408,0.856891212882266,-0.07544185691745489,-0.7235698746455492,0.4156923180061638,-1.660047346110902,22.097855736255564
1777263020.6107814,-0.7800601676,-0.7465606512,9.9338030239,-0.2744312082604584,-0.03558290012503439,-0.7881688735849892,0.38787607892063414,-1.6636540148404113,22.017967249933683
1777263020.7132041,0.5563312545,-0.5599204884,9.8727860476,-0.6239988408192726,-0.0675006088208807,-1.7223345390993043,0.3239644239654299,-1.6705676104082527,21.841561071621204
1777263020.8143268,0.8685946038000001,-0.0753739119,10.313065405999998,0.5687155367623523,0.003817907738737596,0.2390010244449735,0.3814744277817597,-1.6701815335834922,21.865729480851215
1777263020.9154587,0.8075776275,-0.3206382284,10.090532904199998,-0.21426098229795387,0.06215553798664806,0.795041107514717,0.35980580410803903,-1.6638956249340238,21.946133511389625
1777263021.0165365,-0.6843472636,-0.9643075078,10.0055877019,0.1750128907437314,-0.11041389180429127,-0.4726569780557144,0.3774957212060118,-1.6750560176581375,21.898358386242833
1777263021.1176937,0.2081755662,-0.9930213789999999,9.9290173787,-0.1901318053891323,-0.09758572180213294,-1.4414892458377668,0.358262522344479,-1.684927514905141,21.752541387002665
1777263021.219119,-0.514456859,1.0420742423,9.6921279413,0.044898595007554123,0.03283400655314333,0.24083362015956755,0.36281638072087913,-1.6815973123509709,21.776968035504648
1777263021.3232994,0.33260234139999995,-0.0275174599,10.584650771100002,-0.4338670354301404,-0.13469578502266238,-1.0503827770814873,0.31761596719107876,-1.6956299644922184,21.667538804861223
1777263021.426253,0.4235296002,0.1148554848,9.9134640318,0.05421428989007387,-0.029932396671702752,-1.3449725382024802,0.3231975274323111,-1.6987116146535748,21.529068942763946
1777263021.527369,0.143569356,0.7884350467,9.8739824589,-0.41996985126113556,0.040011673101970006,-0.2144136986075034,0.28073188030987756,-1.6946657966368193,21.507388299651257
1777263021.629079,0.3014956476,-0.1088734283,9.2685983411,0.02871066619530672,0.017867808217291947,-0.7179193711922175,0.28365204449705056,-1.6928484604139509,21.434368662183704
1777263021.7301607,0.0334995164,0.0275174599,8.9682991048,-0.2622139034964981,-0.07238753072646481,0.26847527218802775,0.2571470410390991,-1.7001655085438687,21.461506574868082
1777263021.831769,0.3361915753,-0.3900300838,9.4839523751,-0.18784106074588972,-0.17837264955382048,-0.41523564566510096,0.23806083462572505,-1.7182896460160808,21.419315196625835
1777263021.933753,0.7800601676,0.5000999234,10.476973754100001,-0.5659666431904612,0.04123340357836603,-0.8762861841950531,0.18034127887630724,-1.71408449759397,21.329948005344086
1777263022.0348165,0.8721838377000001,0.5599204884,9.5198447141,-0.43111814185824937,0.09437867930159337,-0.318566221720265,0.1367709748948993,-1.7045462588902824,21.297752591208337
1777263022.1370995,0.9667003303999999,0.7286144817,10.2568340749,-0.25931229361505753,-0.01557706357404939,-1.2547171992587236,0.11024773532174931,-1.7061395276985636,21.169416350729538
1777263022.2380972,-0.8530412569000001,0.2703889538,9.562915520899999,0.19379699681832036,0.049174651674940235,0.15134186276355832,0.12982078362897567,-1.7011730016505517,21.18470152872202
1777263022.3412492,0.023928226,0.5108676251000001,10.1252288319,0.04108068726881653,0.07086036763096977,1.1246029035225462,0.13405834018842885,-1.693863610410454,21.300706608661844
1777263022.4422746,-0.0933200814,-0.33499516399999996,10.5870435937,-0.4378376594784275,-0.11056660811384078,0.6487388829662923,0.08982564048701151,-1.7050336399130095,21.36624567679286
1777263022.5441654,-0.4845465765,-0.179461695,9.963713306399999,0.3793473129209675,-0.011911872144861299,0.337961193033052,0.12847764258252428,-1.706247350123738,21.400680813925458
1777263022.64512,0.5048855686,0.020338992099999998,9.750752095,0.009010262263420726,0.030390545600351263,1.91445165651258,0.12938726939814119,-1.703179286796488,21.593953386138573
1777263022.747591,-0.753739119,-0.8303094421999999,10.0295159279,0.07116580025006879,0.04321871560250958,1.634675377417889,0.13667970817188727,-1.6987506168974102,21.761460391791314
1777263022.8494344,0.12323036389999999,-0.8470592004,10.066604678200001,-0.1430951820478851,-0.11071932442339028,0.9095783396768449,0.12210641444927234,-1.7100266445910024,21.854094903436877
1777263022.9524512,-0.5192425042,0.5479563754,10.1659068161,0.46502116257823917,-0.10170906215996955,3.349374101039718,0.17001143135111252,-1.7205043921301242,22.199136883959426
1777263023.053472,-0.9379864592,-0.382851616,10.9842521453,-0.22876903170515675,0.0033597588100890844,2.7123943739087375,0.1469009977817157,-1.7201649865636846,22.473145168756528
1777263023.1558468,0.5228317381,-0.0789631458,10.4877414558,0.49403726139264487,-0.10415252311276162,1.7634152263681206,0.19747795970594656,-1.7308275794639396,22.65367443594017
1777263023.2588623,-0.8051848049,-0.41874395499999995,8.6763747476,-0.3303253775555768,-0.03359758810089084,1.0691668831560763,0.16344935126853752,-1.7342886492079201,22.763815114474752
1777263023.3600502,-1.1449656141,0.4331008906,10.2089776229,-0.3118467041000868,0.0755945732270044,1.770440176607398,0.13189422430892034,-1.7266393897343597,22.942962316650483
1777263023.4627142,-0.6352944003,-0.3900300838,11.3934248099,-0.31215213671918585,0.03420845333908886,1.2405145824706196,0.09984743926905953,-1.7231274132916352,23.070318498098032
1777263023.5637615,-0.5623133109999999,-0.3146561719,11.0356978312,0.4036292061393386,-0.050396382151336266,1.2032518029405406,0.14063307164897118,-1.7282198305013858,23.191903816872653
1777263023.66528,-0.4139583098,0.42831524540000004,10.393224963100002,-0.09071348787240527,0.13255775668896932,-0.4497495316232888,0.13142396254861266,-1.7147627485163501,23.14624586013771
1777263023.7668605,-0.051445685899999996,-0.1280160091,10.2089776229,-0.1824959899116571,-0.1033889415650141,-0.15668693359779093,0.1128859502906145,-1.7252650366323876,23.130329541663478
1777263023.8685865,-0.8147560952999999,-0.1842473402,11.8097759423,0.23839015920677548,0.08277223977583108,-0.2738203430222604,0.13713644077217113,-1.7168449432044544,23.1024748783493
1777263023.9698393,0.015553346899999999,-0.526420972,9.8979106849,-0.03313943917224233,-0.1592831108601325,-1.0219775435052796,0.13378097995558183,-1.7329728032583835,22.998996796392547
1777263024.0712464,0.4007977855,-0.3098705267,9.1501536224,0.3718642137530418,0.02641992155206416,0.13271047299851882,0.1714906332768501,-1.730293636923854,23.01245457410761
1777263024.1723983,-0.4163511324,0.4331008906,10.5631153677,0.20967949301146876,-0.0873537290623162,0.058337630247910464,0.1927001214455741,-1.7391296363648665,23.018355538769267
1777263024.274618,-0.9403792818,-0.921236701,10.2149596794,-0.6536258048718765,-0.04153883619746504,0.45555275138616996,0.1258867651459906,-1.7433757188212886,23.064921950414515
1777263024.376508,-0.610169763,-0.861416136,9.7758767323,0.3078760800517997,-0.11652254418627142,0.17226399717184032,0.15725628576699877,-1.7552482110007674,23.082473944095316
1777263024.4776783,-0.2799602442,-0.5288137946,10.110871896299999,-0.08063421144213803,-0.025961772623415653,1.8416059768574666,0.14909849828923238,-1.757874771362927,23.268789775902864
1777263024.5791209,-1.0241280728,-0.28953153460000003,8.9623170483,0.23564126563488444,-0.02550362369476714,-0.16875152205220173,0.17300255515864296,-1.7604619246339521,23.251671186893986
1777263024.6802256,-1.3543375915999998,-0.8506484343,10.3573326241,-0.079412480965742,0.0039706240482871,1.0126618486227599,0.16497357720943936,-1.760060475736492,23.35405609608854
1777263024.7869298,-0.7465606512,-0.2907279459,10.262816131400001,0.2157881453934489,0.03558290012503439,0.11285735275708332,0.18799908620231115,-1.7562636295968324,23.36609845358729
1777263024.8897889,-0.5682953675,-1.5445669883000002,10.5415799643,-0.036499197982331415,-0.006872233929727673,0.3065016332658542,0.18424481445855262,-1.756970500845657,23.39762491128488
1777263024.9912357,-0.035892339,0.12681959780000002,10.0103733471,-0.05772676500971245,-0.09361509775384584,-0.02504547476611863,0.17838861500689923,-1.7664674592156664,23.3950841263376
1777263025.092973,0.12681959780000002,-0.08135596839999999,9.7734839097,0.030848694528999777,-0.02107485071783153,0.9818131540937601,0.18152707668810575,-1.768611556799857,23.494971107270654
1777263025.1942322,0.7585247642,0.0023928226,10.0965149607,0.32284227838765106,-0.02183843226557905,0.3147483139815274,0.2142178377151024,-1.770822899669706,23.526842279681553
1777263025.2958639,-0.705882667,-0.9714859755999999,10.057033387799999,-0.39385536232817037,-0.07422012644105887,-0.9017898078898202,0.1741896707722488,-1.7783660129439312,23.435191901318795
1777263025.3972805,-1.0947163395,0.1399801221,9.9816594759,0.817184972399395,-0.05497787143782138,0.1311833099030238,0.257065782298613,-1.783941681071289,23.448496064989353
1777263025.5013392,-0.969093153,-0.23569302609999998,9.808179837399999,-0.2547308043285724,-0.07116580025006879,0.16630806109940968,0.23055881511826012,-1.791347104755968,23.46580187269883
1777263025.602893,-0.6891329087999999,-0.0323031051,10.9328064594,0.14859296919166723,-0.03313943917224233,-0.4859432969865212,0.24564901316810397,-1.7947125446088108,23.41645242748341
1777263025.704212,-0.9080761767,-1.0480562988,9.8799645154,-0.42730023411951173,-0.0638354173916926,-0.12278391287780109,0.2023554507339323,-1.8011802748080545,23.404012104325055
1777263025.8067954,-0.6520441585,-0.015553346899999999,10.7353985949,-0.04612032548395016,0.03695734691097993,0.10247264370771707,0.19762427055131385,-1.7973890641981418,23.414524097379815
1777263025.9078538,-0.04307080679999999,-0.6759723845,10.0414800409,0.34330626386728463,-0.008857545953871221,0.6646213791594406,0.23231828082463354,-1.7982841943564392,23.481689725809304
1777263026.010321,-1.1318050897999998,-0.4007977855,9.9720881855,0.21334468444065688,-0.05375614096142535,0.20433442217723613,0.2541790834249068,-1.8037924280824922,23.502627273324812
1777263026.1114154,-0.6161518195,0.6771687957999999,9.9948200002,-0.04902193536539073,0.023212879051524585,0.45478916983842244,0.2492232361483221,-1.8014457340449817,23.548603949928143
1777263026.2127898,-0.3661018578,0.6484549246,9.9673025403,0.12095131716320703,-0.02107485071783153,0.1605048413365285,0.26148460187222045,-1.8035821841332367,23.564875029948116
1777263026.3143017,0.0933200814,0.7944171031999999,9.6095755616,0.007483099167925688,-0.004581489286485115,0.8984300490797311,0.26224422590017027,-1.804047260068716,23.656076420895644
1777263026.4157796,-0.4139583098,-0.5575276658,9.6777710057,0.46929721924562534,-0.08674286382411818,-1.2802208229534906,0.30986750407225705,-1.8128497403816823,23.526162349656918
1777263026.516783,-0.35413774480000004,-0.24047867129999997,10.6349000457,-0.46013424067265507,-0.08185594191853406,1.2796099577152926,0.26339237742804555,-1.8211174695158667,23.655407316849697
1777263026.6183553,-0.5922235935,0.0741775006,10.5056876253,0.2623666198060476,-0.07849618310844496,3.3119586052000893,0.2900415519282419,-1.8290905054257043,23.991810487621382
1777263026.7205052,-1.0037890807,0.311066938,9.5581298757,0.1232420618064496,0.029474247743054238,1.8124371617335115,0.3026307240285116,-1.8260797120981305,24.17695087731903
1777263026.8216205,-0.6484549246,-0.09690931529999999,9.487541608999999,0.14676037347707319,-0.08246680715673206,1.2851077448590746,0.3174704324699156,-1.8344183620027696,24.30689483833299
