field.header.stamp,field.orientation.x,field.orientation.y,field.orientation.z,field.orientation.w,field.angular_velocity.x,field.angular_velocity.y,field.angular_velocity.z,field.linear_acceleration.x,field.linear_acceleration.y,field.linear_acceleration.z
1776815480.103573,0.0,0.0,0.0,1.0,0.002138028333693,-0.039706240482871,0.0,-0.1627119367999999,0.0059820565,10.1084790737
1776815480.2050972,-0.0075053564431715476,-0.002027625766299039,-0.019108118132743414,0.9997871964472429,-0.1470658060961721,-0.042760566673861,-0.3761402704204279,-0.4618147618,0.5048855686,10.4518491168
1776815480.3061728,-0.014724786535107766,-0.001336216216316583,-0.059456952925878215,0.9981213683397869,-0.14156801895239,-0.0007635815477475,-0.7988590152534546,-0.023928226,0.8997012976000001,9.2219383004
1776815480.4071307,-0.042390826512362915,-0.003446917561695172,-0.11176887520368192,0.9928236777608727,-0.5375614096142535,-0.1178969909722169,-1.036027443983834,-0.1184447186999999,0.3194418170999999,10.9579310967
1776815480.508145,-0.027361012428407175,-0.004836215917268564,-0.20039621631160073,0.979320857789973,0.3150537466006264,-0.0407752546497175,-1.7782287083944228,-0.0334995164,0.3493520996,10.4183496004
1776815480.6090436,-0.04393296909660452,-0.005955595584944999,-0.17249958668109877,0.9840113402306069,-0.3255911719595422,-0.0638354173916926,0.5670356573573078,-2.189432679,-0.5324030285,9.7328059255
1776815480.709981,-0.03711775860270622,-0.009911766114925648,-0.22559735697472813,0.9734628197393117,0.1649336143134641,-0.0908662041819547,-1.0728320745852644,-0.4534398827,-0.191425808,10.4147603665
1776815480.811016,-0.038580180534048374,-0.013348192949216952,-0.23286655163088418,0.9716514624835859,-0.0097738438111682,-0.0778853178702469,-0.1455386430006771,-0.5910271822000001,-0.2500499617,9.9230353222
1776815480.9120188,-0.04833980043037369,0.002460013085365354,-0.2575408418824739,0.9650543646823416,-0.2559525348049684,0.2353358330157854,-0.5117523533003874,0.155533469,-0.8111668613999999,10.3322079868
1776815481.0129836,-0.05365876433582695,0.0008282541090776311,-0.24050561675241144,0.9691630922170043,-0.0980438707307814,-0.0401643894115195,0.3506366467256608,-1.4225330357,-0.3888336725,9.9840522985
1776815481.1138787,-0.06167060596990531,-0.0007126301164095059,-0.19429823549181532,0.9790017488249901,-0.160352125026979,-0.0114537232162127,0.9407324668249436,-1.3902299306,-0.3720839143,9.8955178623
1776815481.2147725,-0.07396849341793982,0.00557167812318606,-0.23648801445162812,0.9687987600142242,-0.2548835206381219,0.0116064395257622,-0.8599455390732561,1.5936198516,0.3194418170999999,9.3547399547
1776815481.315674,-0.0875753903875971,0.005433804693912461,-0.18737814397762584,0.9783611071197119,-0.2755002224273049,0.0198531202414355,0.9964739198105124,-1.4129617452999998,-0.6340979889999999,9.8596255233
1776815481.4166334,-0.09090426440125102,0.001157169597175066,-0.2026858151087457,0.9750146337496142,-0.0442877297693561,-0.1229366291873505,-0.3000875482647751,1.0612168231,0.6340979889999999,10.5619189564
1776815481.5177882,-0.0935284996365834,0.0036870093582105114,-0.22670170707355883,0.9694561164527543,-0.0531452757232273,-0.0065668013106286,-0.4879286090106647,0.6352944003,1.0492527101,11.5238336416
1776815481.6190276,-0.09882807262592187,0.012306280025029237,-0.24536598450411198,0.9643013539248604,-0.1365283807372564,0.1036943741841131,-0.3920227666135763,1.5254244075,-0.2679961312,9.6885387074
1776815481.7202702,-0.09297578394163737,0.001647427626260533,-0.20520818853096712,0.9742907106929088,0.1482875365725682,-0.100640047993123,0.8286386956156078,-0.8434699665000001,-0.0741775006,10.2879407687
1776815481.8215487,-0.11238827704532192,0.0023413476068121705,-0.1780478388932418,0.9775798485748437,-0.3906483198276308,-0.0048869219055841,0.5491678491400158,-0.0526420972,0.1603191142,8.9503529353
1776815481.9227598,-0.11492775004200123,0.001471679130769385,-0.16043425558504923,0.9803317275625076,-0.0529925594136778,0.0143553330976533,0.3538436892262004,-1.2263215825,-0.7070790783,10.3334043981
1776815482.023977,-0.11300265535734923,-0.0009956581466361355,-0.13790243886269674,0.9839778076271656,0.0375682121491779,0.0085521133347722,0.4523457088856303,-1.3316057769,-0.1663011706999999,9.9924271776
1776815482.1253188,-0.11478043638069013,-0.0041463794969421024,-0.11052608971157404,0.9872143852549936,-0.0364991979823314,-0.0042760566673861,0.5487097002113672,-0.6376872229,-0.1387837108,10.090532904199998
1776815482.231838,-0.11938416842658299,-0.007832782902921581,-0.09614445531574531,0.9881509558529644,-0.0846048354904251,-0.0458148928648511,0.279165413856493,-0.7154539574000001,-0.0993021378999999,9.2889373332
1776815482.337849,-0.12439093973897121,-0.014309174398110271,-0.048111150290155225,0.9909628947930684,-0.1044579557318606,-0.0178678082172919,0.9188940345593646,-1.6594224731,-0.1722832271999999,8.913264185
1776815482.4626606,-0.1171103063673174,-0.014072629619405195,-0.06227960612031443,0.9910642703173425,0.121867615020504,-0.0172569429790939,-0.2287690317051567,1.7180466268,0.9702895643,9.8596255233
1776815482.5642965,-0.11445316757112682,-0.019248843472934794,-0.027748202088855208,0.9928544665451859,0.0419969851261135,-0.020616701789183,0.6866125277345693,-1.3459627125,-0.4366901245,11.078768638
1776815482.6655188,-0.11355674678953963,-0.020243833477705066,-0.03848996240370544,0.9925792538930405,0.0232128790515245,-0.04306599929296,-0.2093740603923697,0.346959277,-0.5754738353000001,9.8907322171
1776815482.767048,-0.13873871989738773,-0.007167912154387751,-0.12429141358237542,0.9824723065543761,-0.478002048889947,0.0035124751196385,-1.7040085819533637,0.3541377448,-1.0444670649,9.5389872949
1776815482.8686562,-0.15268330126302207,-0.005557946934548398,-0.1282144618519123,0.9799071234118683,-0.2774855344514484,-0.0145080494072028,-0.0748309916792568,-0.4043870194,0.0011964113,10.025926694
1776815482.96987,-0.16698420130559985,-0.014089267886647956,-0.09766938907907506,0.9810088987780231,-0.2837469031429781,-0.1010981969217715,0.6342308335590894,0.0334995164,-0.7716852885,9.8644111685
1776815483.0713708,-0.17171600909320173,-5.213456976718711e-05,-0.10899480301818712,0.9790984334672979,-0.1149953810907764,0.2241875424186716,-0.2645046481397406,0.3098705267,-0.2524427843,10.972288032300002
1776815483.1724048,-0.17435555096099084,0.012648665509174673,-0.1524225755458099,0.9727319834229304,-0.0707076513214202,0.0890336084673607,-0.8965974533651371,0.6544369810999999,0.071784678,10.2352986715
1776815483.280228,-0.13999598267580693,0.006162533280906952,-0.13758284650890856,0.9805274643602305,0.6524040743954804,0.0195476876223364,0.2849686336193742,-1.0731809361,-0.6544369810999999,10.2233345585
1776815483.382266,-0.1441949404624482,0.014661215785654871,-0.2042580202341506,0.9681278474802503,-0.0917825020392518,-0.04001167310197,-1.3361149922486089,-0.7968099258,-0.801595571,9.2805624541
1776815483.4883993,-0.1448300316193754,0.0019356652476675631,-0.15420978946545255,0.9773637275723918,0.0135917515499058,-0.0977384381116824,0.9833403171892552,-0.2727817764,-0.8781658942,9.858429112
1776815483.5909135,-0.14542383713468243,-0.002268022197604233,-0.14434263057126223,0.9787808583478248,-0.0039706240482871,-0.0540615735805243,0.2044871384867856,0.3302095188,-0.5946164161,9.8787681041
1776815483.6927578,-0.14683443531473345,-0.00042139106092200715,-0.1700897111336328,0.9744275043336238,-0.0210748507178315,-0.042760566673861,-0.5115996369908379,0.5946164161,0.9678967417,10.7258273045
1776815483.7948282,-0.14969795917423429,0.007339432178903628,-0.18943551675228315,0.970386953100234,-0.0736092612028608,0.0813977929898855,-0.4017966104247445,0.4019941968,-0.9032905315,10.2436735506
1776815483.896224,-0.1627552585332932,0.007679630095393356,-0.2217375319789384,0.9613970126920762,-0.241291769088216,-0.1475239550248207,-0.6391177554646735,0.2356930260999999,0.4833501651999999,9.6514499571
1776815483.997255,-0.16798085056769288,-0.001747319065989069,-0.1829516241970639,0.9686630394116894,-0.0899499063246577,-0.0737619775124103,0.8069529796595782,-1.0636096457,-0.4103690759,9.5318088271
1776815484.0987773,-0.14887625855536873,-0.0030426965224063934,-0.19951043165210727,0.9685154564065652,0.3901901708989823,-0.0044287729769356,-0.337044895175755,0.7980063370999999,-0.7633104094,10.8107725068
1776815484.199824,-0.1476190410561182,-0.0068854735035898396,-0.17919461580901455,0.9726512728811716,0.0253509073852176,-0.0099265601207177,0.4155410782841999,-0.1782652837,0.6735795618999999,10.1276216545
1776815484.301193,-0.14944193468978478,-0.023811475499960513,-0.13779459989527043,0.97883235031868,-0.0183259571459404,-0.2127338192024588,0.8671232056220828,-0.1399801221,-0.3744767369,9.9134640318
1776815484.4037354,-0.18242927451130722,-0.039842780468948485,-0.06076003112061418,0.9805306375957883,-0.696233655236188,-0.122478480258702,1.574657867764934,0.1172483074,-0.4558327053,10.157531937
1776815484.5050583,-0.15328273235633366,-0.06209607377230544,0.007021203883486447,0.9862044333095787,0.515264828420026,-0.198836635033454,1.3666582541585095,0.8721838377000001,0.1567298802999999,10.1515498805
1776815484.6065056,-0.1542458879934342,-0.08498431257649838,0.13451053621734266,0.9751373176632817,-0.2159408617029984,-0.0389426589351234,2.5819746455534616,-0.5934200048,-0.0526420972,9.4827559638
1776815484.7082434,-0.16631555089014646,-0.11027444566642554,0.25472347447252286,0.9462001034230105,-0.4993823322268775,0.0029016098814405,2.5065327886360067,-0.7872386353999999,-0.2189432679,10.6516498039
1776815484.8129632,-0.14508388788005033,-0.1327674686328345,0.3655717543583878,0.9097696176317216,0.0963639913257369,-0.1111774733520388,2.289675629075711,-1.6917255782,0.0047856452,10.0486585087
1776815484.91577,-0.1458622563728858,-0.1337236751964784,0.37611285536068095,0.9051968299161197,-0.0363464816727819,0.0306959782194502,0.2246456913473201,0.7010970218,-0.2548356069,11.1397856143
1776815485.0190337,-0.1755723518001085,-0.1434782215552863,0.35680516068021706,0.9062441318622015,-0.5969680540290104,-0.023365595361074,-0.3159700444579235,-0.3218346397,0.8925228298,10.393224963100002
1776815485.1200497,-0.1483461732120172,-0.16325633949479829,0.4633817124741989,0.8582646264716892,0.1562287846691424,-0.0798706298943905,2.381610847424513,-0.3756731482,-0.3122633493,9.5485585853
1776815485.2229657,-0.15683360056526577,-0.175829782978914,0.5123440153599204,0.8258272937341055,-0.3524692424402548,0.1279762674024842,1.166905321267759,-0.47856452,0.2943171798,10.4159567778
1776815485.3241005,-0.15269166377958873,-0.17826602160469512,0.5350213536042738,0.8115778659752286,0.0091629785729702,0.0372627795300789,0.5355760975901099,-0.2033899209999999,-0.2464607277999999,10.4303137134
1776815485.4255395,-0.17731271016141378,-0.2048098124865407,0.5287831875044775,0.8043640246412362,-0.7267769171460887,-0.159130394550583,0.0670424598922321,-0.5036891573,-0.1938186305999999,8.7637127725
1776815485.5268333,-0.16490725318758293,-0.2026044393645975,0.533040043477903,0.8047517325516976,0.2280054501574092,-0.08307767239493,0.0726929633455638,-0.4283152454,-0.2488535503999999,9.7579305628
1776815485.629361,-0.1540249033954878,-0.20535517750078686,0.5487053800712851,0.7956305587950087,0.1171334094244694,-0.0736092612028608,0.3746131073249329,-0.1830509289,-0.0287138712,9.4803631412
1776815485.7309546,-0.11100634030205558,-0.19115909656418084,0.5947557291810414,0.7729174696045096,0.7896960366804844,-0.0569631834619649,0.972039310282592,0.3326023413999999,-0.1495514125,9.8189475391
1776815485.8327851,-0.11901103008420928,-0.20620599253904257,0.618502495171293,0.7488458631962711,-0.3755294051822299,0.0183259571459404,0.7057020664282573,-1.495514125,-0.0191425808,10.0893364929
1776815485.9342575,-0.08991013556097782,-0.20721808910703188,0.6888999544483995,0.6887624291664214,0.2646573644492901,0.0004581489286485,1.8524488348354813,-0.6041877065,0.2404786712999999,10.0510513313
1776815486.0357969,-0.11490825377924843,-0.2149653296991942,0.6616342400482633,0.7091023428507885,-0.4146247804269029,0.0873537290623162,-0.6693555847554753,-1.3674981159,-0.346959277,10.4386885925
1776815486.137452,-0.09062433725112465,-0.20064317385810054,0.6817243899282792,0.697697214025438,0.519846317706511,-0.0358883327441334,0.418900837094289,0.3924229064,0.6927221427000001,9.3858466485
1776815486.2384334,-0.08419754201968692,-0.2000581476804787,0.6911282021403727,0.6893687835046745,0.0789543320370934,-0.0303905456003512,0.2544253717094734,0.1579262916,-0.2249253244,10.394421374399998
1776815486.3397212,-0.10928656254129147,-0.20473128938591964,0.6278273405204763,0.7429497808662932,-0.300392980883874,-0.0754418569174548,-1.63742427098978,0.71784678,0.2057827435999999,10.8263258537
1776815486.441609,-0.11297046424555485,-0.19287917692640622,0.5757874875336554,0.7864502950066309,0.2102903582496667,-0.062766403224846,-1.372156041302292,0.2416750825999999,-1.0516455327,9.5736832226
1776815486.5445611,-0.126197464700564,-0.19634725974086836,0.5115385681985773,0.8269523848086728,-0.1249219412114941,-0.2208277836085825,-1.4550809973876726,1.1712866627,0.5168496816,10.2424771393
1776815486.6458364,-0.10934572651848767,-0.18140403906688912,0.5006660324911574,0.8393268794765993,0.4871650274629172,0.0061086523819801,-0.3697261854193487,-0.059820565,0.5778666579,9.6287181424
1776815486.7476478,-0.10842326728016005,-0.19057085904663612,0.550488527370737,0.805536792473019,-0.2029599753912906,0.0737619775124103,1.216385405561798,-1.7264215059,0.4271188341,10.731809361
1776815486.8493185,-0.09553400340590527,-0.17900307675301808,0.5419328086372908,0.815561146468302,0.3735440931580864,-0.0077885317870246,-0.2907718533822553,1.2729816232,0.4235296002,9.6000042712
1776815486.9504216,-0.09519063490607374,-0.17990009937649498,0.5527667275802957,0.8080987824212313,-0.0290160988144057,0.0293215314335047,0.2631302013537951,-0.0753739119,-0.0287138712,10.4267244795
1776815487.054473,-0.10953403766453032,-0.17904903912060358,0.5164372423586234,0.8302025722002518,-0.1469130897866227,0.0132863189308068,-0.8234463410909246,-0.454636294,-0.0777667345,9.6275217311
1776815487.159154,-0.10954315254296627,-0.18649949697767515,0.5376495743455015,0.8149547046088657,-0.1305724446648258,-0.0197004039318859,0.5267185516362387,-0.5228317381,-0.8362914987,10.7665052887
1776815487.260744,-0.12174187914957116,-0.17661549159956558,0.48063334278770564,0.8502808199582601,0.0270307867902621,0.0287106661953067,-1.3608550343956287,0.1627119367999999,0.2237289131,10.456634762
1776815487.363706,-0.11862463150946864,-0.18096370242132515,0.4520883185186962,0.8653302765211366,0.0661261620349351,-0.2238821097995726,-0.6039930042682877,-0.1770688724,-0.5120640364,9.3499543095
1776815487.4668207,-0.09907142800290888,-0.1836141365751366,0.4821120090085523,0.8509046431727642,0.238848308135424,-0.1093448776374447,0.6548475353482724,-0.4462614149,0.095712904,9.4588277378
1776815487.5680315,-0.11198330176828913,-0.19464965926962696,0.507730590202279,0.8317336701397483,-0.4114177379263634,0.0694859208450242,0.676227818685203,-0.6197410534,0.7597211755,9.9230353222
1776815487.6695848,-0.11065302658341503,-0.19310917088516094,0.4961189048946707,0.8392441766459202,0.0682641903686282,-0.0429132829834105,-0.2780963996896465,-0.1674975819999999,0.2093719774999999,11.3527468257
1776815487.7707589,-0.10127277464198742,-0.18446181956182528,0.4673584990000081,0.8586580784297748,0.3310889591033243,-0.0788016157275439,-0.7231117257169006,-0.2261217357,0.5467599640999999,10.0115697584
1776815487.8775182,-0.09348430945794409,-0.18289082743958562,0.46865258319848657,0.8591719184104079,0.1426370331192365,-0.0435241482216085,0.0082466807156732,-0.6448656907,-0.0837487909999999,9.8775716928
1776815487.9790504,-0.10688633816631038,-0.18562952200789776,0.4259085759033547,0.8790442970888854,-0.1586722456219345,-0.0876591616814152,-0.9138543963442308,-0.3996013741999999,0.514456859,12.8039937326
1776815488.0809116,-0.09459653666129589,-0.18154994959934462,0.4208552448773484,0.8837261871820878,0.2747366408795574,-0.0601702259625045,-0.1556179194309444,0.6269195211999999,0.7250252478,11.8349005796
1776815488.182026,-0.10304178890700953,-0.1846486240483221,0.37820772830751453,0.9012470192041547,-0.0710130839405192,-0.139124557999598,-0.8985827653892805,-0.1734796385,0.1280160091,9.415756931
1776815488.2835066,-0.12193436068732308,-0.20806151424188118,0.42969091394809067,0.870177071891465,-0.7229590094073511,-0.0247400421470196,1.3113749501015894,-2.0853448959,-0.0490528633,11.8169544101
1776815488.384498,-0.11237609005444424,-0.20484503919874908,0.4148938683587421,0.8793595409717558,0.2495384498038892,-0.0995710338262765,-0.3669772918474577,-0.3780659708,0.0011964113,9.3499543095
1776815488.485953,-0.11066122318480984,-0.20400783454635024,0.4285597475146159,0.8731961062311029,0.000916297857297,0.0571158997715144,0.2921463001682008,-0.4115654871999999,0.0059820565,10.1718888726
1776815488.5870607,-0.08771636643274139,-0.2001224043441487,0.4536350020568298,0.8639861962139522,0.379805461849616,-0.0491746516749402,0.4952589918690409,-0.6640082715,0.5850451257,10.121639598
1776815488.6884286,-0.09636504734831773,-0.20860522613445115,0.4236577049769825,0.8761916378809986,-0.1565342172882414,-0.1814269757448105,-0.596815337719461,0.1686939932999999,-0.5395814963,9.3068835027
1776815488.789391,-0.08998417414254321,-0.2191329234481011,0.46584760592204066,0.8525664890914233,-0.140346288475994,-0.0610865238198015,1.0177014868378935,-0.4259224228,-0.2057827435999999,10.2496556071
1776815488.891027,-0.11041107044037676,-0.21825378147416075,0.41794679172247173,0.8749258035315522,-0.2005165144384985,0.0019853120241435,-1.0407616495798686,0.8530412569000001,1.4404792052000002,10.3860464953
1776815488.9921324,-0.09636535118924405,-0.20948537362369188,0.4218165096731096,0.8768696764600264,0.337961193033052,0.0364991979823314,-0.0048869219055841,0.2368894373999999,0.4402793584,11.5704936823
1776815489.093659,-0.09710463447739387,-0.210423525554499,0.40989326783708274,0.8822018696636641,0.0142026167881038,-0.0574213323906134,-0.2556471021858694,0.3146561719,-2.9168507494,9.4181497536
1776815489.1950958,-0.09657834206707877,-0.2127693848530028,0.40481017591853746,0.8840421563396463,0.001221730476396,-0.0653625804871876,-0.0969748565639349,0.5108676251000001,0.2321037922,10.1419785901
1776815489.296882,-0.0963156160436352,-0.21698307601638994,0.4043897054252568,0.8832387066782539,-0.0381790773873759,-0.0762054384652024,0.0197004039318859,1.0241280728,0.0346959277,9.7806623775
1776815489.398276,-0.09215168734679653,-0.21813015107266243,0.4101893555424071,0.8807224286413176,0.0442877297693561,-0.0334448717913413,0.1275181184738357,-0.2656033086,0.0825523797,10.2711910105
1776815489.501607,-0.09112731527150104,-0.21986453687191543,0.41127921671254597,0.8798890860431337,-0.003665191429188,-0.0339030207199898,0.0337503044104403,-0.1639083481,-0.311066938,9.9888379437
1776815489.6030986,-0.08993165296968592,-0.2214427824412642,0.4117101648860107,0.8794146530666547,0.0032070425005395,-0.0360410490536829,0.0183259571459404,-0.2380858487,-0.3649054465,10.1898350421
1776815489.704813,-0.08681612433383702,-0.22265182383186025,0.4140476932493461,0.8783243328149878,0.0352774675059353,-0.0394008078637719,0.0537561409614253,-0.1004985492,-0.0011964113,9.9744810081
1776815489.8064196,-0.08431988864077224,-0.2246691982309852,0.4131470420517855,0.8784779048955722,0.0265726378616136,-0.060628374891153,-0.0109955742875642,0.0143569356,0.1483550012,10.0953185494
1776815489.909752,-0.08373399115396558,-0.22536981477206353,0.4131167757835226,0.878368712376107,0.00305432619099,-0.0171042266695444,0.00305432619099,0.0454636294,-0.1411765334,10.0414800409
1776815490.0135007,-0.08384015483131105,-0.22759686961782205,0.4120506126453013,0.878285139346364,-0.0219911485751285,-0.0404698220306185,-0.0070249502392771,-0.059820565,-0.3517449222,9.9110712092
1776815490.1146057,-0.08435064804252398,-0.22943889493088834,0.4116573793505697,0.877941321327297,-0.0282525172666582,-0.0285579498857572,0.0061086523819801,-0.0323031051,0.0514456858999999,10.1539427031
1776815490.2159424,-0.08307632435922577,-0.2306783201006974,0.4117247244366194,0.877706436261049,0.0093156948825197,-0.0325285739340443,0.0077885317870246,-0.0945164927,0.0921236701,10.0678010895
1776815490.3171864,-0.08101022832631999,-0.23282145368554943,0.4109867332266569,0.8776795649449438,0.0167987940504454,-0.0584903465574599,-0.0053450708342326,0.3696910917,0.0311066937999999,10.16949605
1776815490.418974,-0.07924684287992054,-0.23201912615842216,0.4082859311483038,0.8793120387078809,0.0513126800086332,-0.0128281700021583,-0.0705549350118707,-0.454636294,0.7501498851,10.2963156478
1776815490.523179,-0.0746447544428433,-0.2328029503640871,0.4119526432205538,0.8777960849078464,0.059712077033856,-0.039706240482871,0.0748309916792568,0.5611168997,0.4725824635,10.2879407687
1776815490.624262,-0.07580605158893843,-0.23502162212188,0.40890135082605594,0.8785317097124736,-0.0340557370295393,-0.0395535241733214,-0.0491746516749402,0.059820565,0.0693918554,10.2113704455
1776815490.725932,-0.0739351420120305,-0.2359988056350904,0.4101697738815805,0.8778376359603207,0.0183259571459404,-0.0287106661953067,0.0311541271480987,-0.5108676251000001,-0.1615155254999999,9.8835537493
1776815490.8271573,-0.07359591134487058,-0.23738059221290936,0.40855586878508215,0.8782460921377522,-0.002748893571891,-0.0331394391722423,-0.0267253541711631,-0.2404786712999999,0.1232303638999999,10.0163554036
1776815490.9287562,-0.07454962433446297,-0.23970512676921688,0.40522225083046964,0.8790783430070565,-0.0299323966717027,-0.0442877297693561,-0.0546724388187223,0.1471585899,0.0981057266,10.1359965336
1776815491.0314033,-0.07137821793098835,-0.23950709444733936,0.4042763144782011,0.8798307583088423,0.0636827010821431,-0.0284052335762077,-0.0306959782194502,-0.3649054465,0.2751745989999999,9.9194460883
1776815491.133193,-0.0764180515988931,-0.2419939200353134,0.3968219197240719,0.8821176724690837,-0.0896444737055587,-0.0268780704807126,-0.1345430687131129,-0.7142575461,-0.3517449222,10.0151589923
1776815491.2341611,-0.07574177668028086,-0.24424626770502839,0.39467667329628353,0.8825175734982601,-0.0035124751196385,-0.0536034246518758,-0.0326812902435938,0.2141576227,-0.1184447186999999,10.0797652025
1776815491.3376374,-0.07443673276135272,-0.2464977205556312,0.39221734898594723,0.8830988606781963,0.0094684111920692,-0.0589484954861084,-0.0404698220306185,0.6173482308,0.1375872994999999,10.1060862511
1776815491.4401228,-0.07306051563296231,-0.24847146633328804,0.39242258049143575,0.8825693229396055,0.002748893571891,-0.0450513113171036,0.0160352125026979,-0.0466600407,-0.3278166962,10.1144611302
1776815491.5432775,-0.07738067276394758,-0.25181213338835545,0.38557436151159213,0.8842710516046152,-0.0865901475145686,-0.0464257581030491,-0.1130100690666328,0.0502492746,0.3409772204999999,10.1635139935
1776815491.64446,-0.07619588390364977,-0.2538951729648665,0.38440245132703266,0.8842885184344815,0.0041233403578366,-0.0513126800086332,-0.0131336026212573,0.5407779076,0.4642075844,10.2317094376
1776815491.746369,-0.0728851460244533,-0.2546653348117852,0.38677425956904254,0.8833113804706777,0.0426078503643115,-0.0326812902435938,0.0494800842940392,0.4223331889,0.5060819799,10.2580304862
1776815491.8477798,-0.07079636259588354,-0.2574321174937277,0.38594462700331356,0.8830420855277289,0.0117591558353117,-0.0696386371545737,-0.0025961772623415,0.2955135911,-0.4007977855,10.170692461300002
1776815491.9490187,-0.06769705579255121,-0.2579570700516447,0.38820297321033326,0.882141547733723,0.041844268816564,-0.0274889357189106,0.0459676091744006,0.0167497582,0.1268195978,10.1994063325
1776815492.050737,-0.06897664712180857,-0.2596133459840063,0.3856512170153939,0.8826756321284551,-0.0308486945289997,-0.0274889357189106,-0.0401643894115195,-0.3481556883,0.0538385085,9.8620183459
1776815492.1517107,-0.06881016166691091,-0.26083829868433794,0.38324586320575593,0.8833748648940092,0.0004581489286485,-0.0323758576244948,-0.0450513113171036,0.0167497582,0.0669990328,10.3322079868
1776815492.2531607,-0.06686763731991734,-0.26327923588650487,0.38154121335686475,0.8835378121735603,0.0169515103599949,-0.0661261620349351,-0.0245873258374701,0.4199403663,0.1507478238,10.301101293
1776815492.3557866,-0.06728375877843522,-0.26563678239987776,0.3773228904676198,0.8846114581950915,-0.0142026167881038,-0.0534507083423263,-0.0737619775124103,0.3409772204999999,0.6209374647,10.1479606466
1776815492.4573278,-0.06752668834581418,-0.2666555308755823,0.3759137506915093,0.8848863352180044,-0.0093156948825197,-0.021227567027381,-0.0226020138133265,-0.3517449222,0.1746760498,10.1850493969
1776815492.5583322,-0.06465549149249719,-0.269280223264943,0.3773809061962478,0.8836806439074836,0.0174096592886434,-0.0652098641776381,0.0459676091744006,0.4247260115,-0.0251246373,9.7710910871
1776815492.659716,-0.06188148052942581,-0.27084645108549266,0.3782004505263564,0.88304999944711,0.0305432619099007,-0.0482583538176432,0.0226020138133265,0.1639083481,0.1100698396,10.1120683076
1776815492.7609282,-0.05817800796694918,-0.2720600762899624,0.3807551891425304,0.8818299837378706,0.043371431912059,-0.0436768645311581,0.0561996019142174,-0.9714859756,-0.7274180704000001,9.8488578216
1776815492.8626916,-0.04915849426147831,-0.27223793828779264,0.3874280360621009,0.8794142734069192,0.1337794871653653,-0.0569631834619649,0.1235474944255486,-0.4630111731,-0.2285145583,9.9972128228
1776815492.9710283,-0.04719504124609927,-0.2741757028109181,0.38892739373454877,0.8782572484601362,0.0061086523819801,-0.042760566673861,0.041538836197465,0.6508477471999999,0.3960121403,10.1790673404
1776815493.0736065,-0.04707608059840744,-0.27628867180832495,0.3877089314088758,0.8781401920944466,-0.0160352125026979,-0.0419969851261135,-0.0102319927398167,0.0729810893,0.1567298802999999,10.0390872183
1776815493.177544,-0.047920778458693275,-0.2780179852241024,0.38428771975347886,0.8790520731620598,-0.0177150919077424,-0.0346666022677373,-0.0595593607243064,-0.0765703232,-0.0442672181,10.145567824
1776815493.2826045,-0.04541299709405355,-0.2793730738986714,0.3854744810814891,0.8782356003432676,0.0242818932183711,-0.04001167310197,0.0293215314335047,-0.11964113,-0.2321037922,10.0606226217
1776815493.3837335,-0.049084713343265834,-0.2810700461362434,0.38134097583523646,0.8793005062150305,-0.0676533251304302,-0.0128281700021583,-0.0678060414399797,-0.6711867393,-0.3038884702,10.1395857675
1776815493.4854636,-0.05122629269081029,-0.2836505259013239,0.37669939497425076,0.8803498236037146,-0.0459676091744006,-0.0439822971502571,-0.0763581547747519,-0.4630111731,-0.6317051664,9.9828558872
1776815493.5865276,-0.054497033045397145,-0.285939755648737,0.37255377721884153,0.8811766069345934,-0.0671951762017816,-0.0277943683380097,-0.063377268463044,-0.3816552047,0.0275174599,9.9457671369
1776815493.687961,-0.05950977427819577,-0.28670911467708,0.3671591445366389,0.882865013979808,-0.0757472895365539,0.0085521133347722,-0.0985020196594299,-0.8554340795,0.287138712,10.073783146
1776815493.789099,-0.059288311793089896,-0.2892294871375707,0.363386829091129,0.8836182503196491,-0.0047342055960346,-0.0613919564389005,-0.0649044315585391,-0.4713860521999999,-0.2727817764,10.1407821788
1776815493.895993,-0.055447799401983175,-0.2916115905048644,0.3637821637804345,0.882921717447207,0.041538836197465,-0.0694859208450242,0.0151189146454008,0.3326023413999999,0.0634097989,9.954142016
1776815493.9986591,-0.05420009978689613,-0.2936239836468517,0.36341131491455486,0.8824848563020887,0.0022907446432425,-0.0470366233412471,0.0048869219055841,-0.0346959277,-0.3086741154,10.0331051618
1776815494.1000214,-0.05966060472646627,-0.29617056017173127,0.35664632616365227,0.8840401628688624,-0.0975857218021329,-0.0253509073852176,-0.1110247570424892,-0.5934200048,-0.1543370577,10.2867443574
1776815494.2013428,-0.06163277074157955,-0.29856972115683267,0.35128935131857913,0.8852419527051455,-0.0361937653632324,-0.0474947722698956,-0.0931569488251973,-0.5096712138,-0.3541377448,9.9469635482
1776815494.3060737,-0.061732871530871244,-0.30052977560613847,0.3490302538899468,0.8854652948682947,-0.0117591558353117,-0.0416915525070145,-0.0322231413149453,-0.1220339526,0.0095712904,10.2006027438
1776815494.4091132,-0.05700875638941025,-0.3014899362986748,0.35249277207170887,0.8840829517883241,0.059712077033856,-0.0419969851261135,0.0682641903686282,0.4067798419999999,0.2656033086,10.2209417359
1776815494.510202,-0.05354641276600888,-0.3028956601393923,0.3557614838351114,0.8825082250993777,0.0314595597671977,-0.041233403578366,0.0748309916792568,-0.0203389920999999,-0.1603191142,10.1910314534
1776815494.6115663,-0.05150944186812356,-0.3045420356810502,0.35619708464134886,0.8818869331125619,0.0172569429790939,-0.0447458786980046,0.0172569429790939,-0.3649054465,-0.1950150419,9.9601240725
1776815494.7126732,-0.05021533089996695,-0.30607478338945787,0.3555673376373491,0.8816850434940986,0.0105374253589157,-0.0407752546497175,-0.0054977871437821,-0.3433700430999999,-0.1459621786,9.9529456047
1776815494.8142736,-0.05279674337798693,-0.3082230938535467,0.3513702681611255,0.8824681087475091,-0.0510072473895342,-0.0328340065531433,-0.0659734457253856,-0.3720839143,-0.0215354033999999,10.2281202037
1776815494.9165003,-0.053025538312099815,-0.30900484750004387,0.3503160361346555,0.88260011972302,-0.0074830991679256,-0.0160352125026979,-0.0158824961931484,-0.071784678,0.6616154488999999,10.1120683076
1776815495.0183291,-0.05537572336650817,-0.31047298926318956,0.34704542363275664,0.8832324304140874,-0.0438295808407076,-0.0193949713127869,-0.0514653963181827,-0.7477570625,-0.2799602442,10.1264252432
