timestamp,accel_x,accel_y,accel_z,gyro_x,gyro_y,gyro_z,roll,pitch,yaw
1777261271.4251854,-0.09930213789999999,0.0550349198,10.1036934285,0.003665191429188092,-0.04123340357836603,0.002596177262341565,0.0,0.0,0.0
1777261271.526805,0.6293123438,1.1856435983,10.803594039,-0.02703078679026218,-0.050396382151336266,-0.2631302013537951,-0.0027468545527710715,-0.0051212542509291165,-0.026739154770760207
1777261271.6278024,-0.921236701,0.2225325018,10.573883069399999,-0.26389378290154264,0.01511891464540088,-1.1771373140075754,-0.029399453160324097,-0.0035942824557047247,-0.14562701939287748
1777261271.7287002,0.18783657410000001,0.7561319416,10.151549880500001,-0.13377948716536536,0.03375030441044035,-0.35705073172673996,-0.042897507629059306,-0.00018895136256490575,-0.18165264878546072
1777261271.8296382,-0.16630117069999997,0.4139583098,10.2664053653,0.3174972075534185,0.006872233929727673,-1.0635163797027447,-0.010849948540387379,0.0005047187475795082,-0.28900195205314294
1777261271.9305594,-0.3768695595,-0.8805587168,8.930013943199999,0.07422012644105887,0.02275473012287607,-0.6887505560682623,-0.0033595677282808713,0.0028011523710442603,-0.35851145300499554
1777261272.0315146,-0.4510470601,0.4007977855,11.170892308100001,-0.14523321038157813,-0.007788531787024695,-0.5406157358052436,-0.01802162248262016,0.0020148592138714908,-0.4130894486205172
1777261272.1324348,-0.24646072779999997,-0.19381863059999999,8.9623170483,0.28970283921540874,-0.13637566442770693,-0.5966626214099116,0.011215246092354463,-0.011748200162750725,-0.47330475991330895
1777261272.2333808,-0.2644068973,-0.47856452,11.2043918245,-0.04459316238845512,-0.06612616203493515,-0.2357939819444339,0.0067137469714163706,-0.018423368379758234,-0.4971072073199131
1777261272.3343263,-0.5491527867,0.5276173833,10.3046905269,0.1821905572925581,-0.0755945732270044,0.0795651972752915,0.025105058901939273,-0.026054298309019622,-0.48907546086911474
1777261272.4352343,-0.4522434714,0.0741775006,9.1561356789,0.20555615265363217,-0.04016438941151951,0.48808132532021425,0.045847327581789526,-0.030107208162511907,-0.4398241304821895
1777261272.536181,-0.0131605243,0.0143569356,11.601600376099999,-0.258243279448211,-0.08918632477691024,-0.46257770162544715,0.019778529811849153,-0.03911027019541857,-0.48651980667683725
1777261272.637111,-1.1377871463,-0.3960121403,10.1324072997,0.398895000543304,-0.056810467152415424,1.2470813837812482,0.06003899244760408,-0.04484414925380327,-0.3606519131532635
1777261272.7382324,0.0394815729,0.6711867393,10.5116696818,0.11301006906663283,0.06093380751025203,0.12538009014014265,0.07146673174201557,-0.038682435769384106,-0.34797329969284213
1777261272.8394423,0.36011980130000004,0.0179461695,10.2376914941,-0.056505034533316414,-0.1281289837120337,-0.756862030127341,0.06574786403844293,-0.05165035469721501,-0.42457521412231763
1777261272.9407032,-0.056231331100000004,-1.1772687192,9.8045906035,-0.35705073172673996,-0.1742493091959839,0.971733877663493,0.029592585420524613,-0.06929499665745659,-0.3261765666262465
1777261273.0419343,-0.7034898444000001,-0.4007977855,9.309276325299999,0.38362336958835364,-0.11560624632897441,3.6839755352626806,0.06842720040956628,-0.08099794392923387,0.046756322458407995
1777261273.1431005,-0.7992027483999999,-0.1591227029,12.3613215516,-0.5421428989007386,0.06520986417763813,1.9949331516451685,0.01358063727361828,-0.07440090661682548,0.24857622506260196
1777261273.2445972,0.0323031051,0.020338992099999998,10.534401496500001,0.36697729184745775,0.05436700619962337,1.8854355576981745,0.0508276200764379,-0.06888283509048183,0.43994170558012635
1777261273.34577,-0.8446663778000001,-0.8685946038000001,10.4733845202,-0.11789699097221695,-0.14019357216644454,0.5978843518863075,0.03889966487288821,-0.08306659529366657,0.5004312711525318
1777261273.4469247,-0.1351944769,-0.143569356,10.454241939400001,0.060781091200702526,0.018784106074588972,1.5086844220395483,0.04504796425416502,-0.08116649272106093,0.6530419485083953
1777261273.5484056,-0.4510470601,0.849452023,9.2578306394,0.13775011121365247,0.06612616203493515,1.8471037640012489,0.05902697789676256,-0.0744559462607009,0.8404878132614078
1777261273.6494982,-0.3505485109,0.5766702466,11.130214323899999,0.028252517266658207,-0.16401731645616713,-0.1357647991895089,0.06188309767343768,-0.0910368794506959,0.8267629998480879
1777261273.7520688,0.1806581063,0.40319060809999996,10.497312746199999,-0.2692388537357753,0.0879645943005142,0.9419541973013397,0.0342671247388637,-0.08201430406197519,0.9233797446356388
1777261273.8550072,0.5874379483000001,0.933200814,9.5557370531,0.21975876944173603,-0.20250182646264206,-0.4361577800733829,0.05688874384427827,-0.10285952083319111,0.878482354666866
1777261273.9562902,-0.1854437515,1.1856435983,10.271191010499999,-0.05207626155638081,-0.09040805525330627,-1.2034045192500902,0.05161430002134859,-0.11201632653164967,0.7565978463833297
1777261274.0611548,-0.7226324252,1.1258230332999999,11.0392870651,-0.07483099167925687,-0.0024434609527920616,1.3274101626042873,0.043767178211805396,-0.11227255908053271,0.8957961785640429
1777261274.1645398,0.3242274623,-0.514456859,9.9170532657,0.29703322207378496,-0.10995574287564276,0.46746462353103124,0.07447594944570052,-0.12364033043703887,0.9441249954005226
1777261274.2664604,-0.251246373,-0.5108676251000001,10.3716895597,-0.317955356482067,0.14187345157148906,-0.9586002750422356,0.04206974724359669,-0.10918050246117218,0.8464238756970617
1777261274.3679175,-0.0981057266,-0.2380858487,9.6921279413,-0.20876319515417174,-0.09987646644537551,-1.1322387190000214,0.020889234912517075,-0.11931368100142534,0.7315501972606138
1777261274.469145,-0.1483550012,0.056231331100000004,9.5461657627,-0.15027284859671178,-0.06154467274845005,-1.2635747452125947,0.005677486840764696,-0.12554369570967353,0.6036416570719154
1777261274.5707276,0.045463629400000004,0.6532405698,9.4372923344,-0.6482807340376437,0.04245513405476207,0.5232060765166001,-0.06017650843233683,-0.12123099590144686,0.6567902525502772
1777261274.6722372,-0.7345965382,-0.6735795618999999,9.726823869,0.17394387657688487,-0.0033597588100890844,-0.42012256757068506,-0.04251954012981807,-0.12157204357717592,0.6141437909170646
1777261274.7734241,-0.71784678,0.1339980656,10.551151254699999,-0.09010262263420726,0.07727445263204895,0.4922046656780509,-0.05163675337176745,-0.11375287425441934,0.6639484998641881
1777261274.8808649,0.5682953675,-0.35892339,10.573883069399999,0.24831671932749322,-0.047494772269895694,0.03405573702953935,-0.02495742872552764,-0.11885574631160296,0.6676074724325224
1777261274.9869795,-0.5599204884,-0.6640082715,9.6035935051,0.5203044666351596,-0.12049316823455852,-0.717461222263569,0.030254485121579515,-0.13164183378602842,0.5914743432121792
1777261275.087985,-0.3493520996,-0.789631458,9.5389872949,-0.04871650274629172,-0.05390885727097486,-0.17760906800607296,0.02533384776304256,-0.13708692779092982,0.573534840867419
1777261275.1941342,0.1866401628,1.1760723079,10.193424276,0.38117990863556156,-0.12415835966374661,0.20922134408282025,0.06579578883420525,-0.150266237923484,0.595743518458562
1777261275.2960556,-0.8925228298,-0.251246373,10.5056876253,-0.12415835966374661,-0.00717766654882668,2.214844637396454,0.0531414049330156,-0.15099779517238426,0.8214834074117644
1777261275.3973062,-0.1639083481,-1.0229316615,9.9696953629,-0.1317941751412218,-0.0755945732270044,1.4347697282175884,0.039797159231637375,-0.15865179473458846,0.9667547728398622
1777261275.4993784,0.7597211755,0.0658026215,10.6863457316,0.24740042147019622,-0.06230825429619756,0.43203443971554634,0.06504987416137623,-0.1650117377539301,1.0108534953930914
1777261275.6004288,-1.4273186809,-0.6759723845,10.0546405652,-0.11713340942446944,-0.09682214025438543,0.596815337719461,0.05321349899237812,-0.17479565151813453,1.0711619102046228
1777261275.7027402,-0.39361931769999997,-1.0025926694,10.3525469789,-0.20937406039236975,-0.10674870037510319,1.9243782166332979,0.031792151453936546,-0.18571725759353253,1.2680476872519622
1777261275.8050354,-0.6209374647,0.2608176634,8.7158563205,-0.4262312199526652,-0.07208209810736581,0.12935071418842975,-0.011809239513249116,-0.193090907373723,1.2812796392939565
1777261275.9061172,0.23569302609999998,-0.4199403663,10.2065848003,0.21197023765471132,-0.13393220347491486,-0.7170030733349204,0.009617103860524612,-0.2066290220270368,1.208803643515954
1777261276.0072632,-1.2047861791,-0.8111668613999999,9.7698946758,-0.19486601098516687,-0.18875735860318674,0.3150537466006264,-0.010092810323643783,-0.22572107056279866,1.2406700643325208
1777261276.1088545,-0.48574298779999997,0.0610169763,10.3154582286,0.06307183584394509,-0.017867808217291947,0.8944594250314439,-0.0036852574585476373,-0.22753628529697845,1.3315394036324437
1777261276.2100973,-0.0071784678,-0.5994020613,10.0821580251,0.11911872144861299,-0.07467827536970736,-1.056644145773017,0.008374653132602494,-0.2350969215521995,1.2245618121194082
1777261276.311769,0.191425808,1.1054840412,10.0151589923,-0.14798210395346922,-0.049938233222687756,1.6200146117011365,-0.006670938310966051,-0.2401742264046731,1.38927144476479
1777261276.4127483,-1.0636096457,0.09092725880000001,9.918249677,-0.16462818169436513,-0.013591751549905842,-0.07086036763096977,-0.023294981493927516,-0.24154671234463929,1.3821160124485616
1777261276.515689,0.16151552549999998,0.3038884702,10.474580931499998,-0.39981129840060103,0.04276056667386108,-1.5494596766892659,-0.06445178020061093,-0.23714491569151808,1.2226137665822476
1777261276.6169715,0.945164927,0.0047856452,9.224331123,0.6520986417763813,-0.028252517266658207,-0.578031231644872,0.0015944634700969101,-0.24000640400043632,1.1640692625322173
1777261276.7184155,-0.9595218625999999,-0.2105683888,9.643075077999999,0.2034181243199391,0.0003054326190990077,1.4799737558442416,0.022230012887239286,-0.23997541969200217,1.31420372904988
1777261276.8194041,-0.777667345,0.2979064137,10.0295159279,-0.4384485247166255,0.06047565858160352,1.333671531295817,-0.02204830140612001,-0.23386806599636642,1.4488893851710596
1777261276.9237564,0.8123632727,0.2225325018,11.0392870651,0.17226399717184032,0.04123340357836603,0.4515821273378829,-0.004072168154415572,-0.22956526814356482,1.496012989803409
1777261277.0257897,0.4594219392,0.047856452,9.2494557603,0.10965031025654375,-0.13759739490410294,-0.8156578093039,0.007115823256574238,-0.24360479496989046,1.412788669293525
1777261277.1281598,-0.011964113,-0.3924229064,10.6504533926,0.11453723216212788,0.020005836550985003,0.5259549700884912,0.018841002430683935,-0.24155679700747928,1.4666306920610368
1777261277.2327266,-0.8386843212999999,-0.6400800455,11.0201444843,-0.06582072941583615,-0.1469130897866227,0.8907942336022558,0.011958338558240618,-0.25691903052323445,1.5597782056757976
1777261277.3339467,-0.3158525832,-0.5132604477,10.4494562942,-0.16936238729039974,-0.09514226084934088,0.7063129316664553,-0.005184544456286853,-0.26654934262246854,1.631271293089855
1777261277.4359698,0.4558327053,0.08374879099999999,10.252048429699999,-0.3483459020824182,0.012675453692608817,1.3213015102223071,-0.040723881861372435,-0.26525615322982404,1.766074601826725
1777261277.537057,-1.6677973521999998,-0.3888336725,10.7940227486,-0.1314887425221228,-0.04337143191205909,3.8354701143357888,-0.054015696651610545,-0.2696404452163834,2.1537911273282697
1777261277.6386037,-0.8458627891,0.6855436748999999,9.8368937086,-0.7243334561932967,0.12431107597329612,1.5082262731109,-0.12756941545571643,-0.2570170576754721,2.3069466253062054
1777261277.7404945,-0.7106683122,-0.43190447930000003,11.1194466222,0.3830125043501556,-0.24526239313650317,1.7893769989915365,-0.08854396406459483,-0.28200703970662894,2.4892676834998944
1777261277.8449898,1.2598210989,1.2167502921,10.4386885925,-0.1154535300194249,-0.02871066619530672,0.36270123518007163,-0.100608313812387,-0.2850071690089899,2.5271682531440827
1777261277.9482498,-1.0348957745,0.15672988029999999,10.118050364099998,-0.09025533894375676,0.045662176555301644,1.6930130076657994,-0.10992808374749347,-0.28029209081847073,2.70198884451564
1777261278.0499446,-0.19381863059999999,0.7142575461,9.0281196698,0.3089450942186463,-0.10995574287564276,0.9159924246779241,-0.07850996728694908,-0.29147402055232735,2.7951405313818514
1777261278.1513977,-0.5778666579,-0.0346959277,9.6323073763,0.15027284859671178,-0.03940080786377199,1.3235922548655499,-0.06326432607946489,-0.2954713533079482,2.9294230236026495
1777261278.253681,0.574277424,0.2596212521,10.359725446699999,-0.2930625980254979,-0.08216137453763306,-0.6293439116535053,-0.09323971794212549,-0.3038750848463075,2.865051689644325
1777261278.3550744,0.31944181709999997,0.0729810893,9.464809794299999,-0.02336559536107409,-0.07055493501187078,-1.0219775435052796,-0.09560883652942406,-0.31102889391383653,2.7614298492116314
1777261278.4561322,-0.9020941202,-0.3242274623,10.0929257268,-0.8874344747921667,-0.0759000058461034,0.696233655236188,-0.1852909836810686,-0.3186991790858151,2.8317896683244084
1777261278.5576239,-0.729810893,-0.1220339526,9.888339394499999,0.4216497306661801,-0.025350907385217634,0.2023491101530926,-0.1424970400617949,-0.32127208551131287,2.8523264214194963
1777261278.6588197,-0.7752745223999999,-0.32542387359999997,10.0438728635,-0.009315694882519734,0.16523904693256314,-0.5907066853374808,-0.14343974937187493,-0.3045505859456308,2.7925493786098308
1777261278.7604616,0.8985048863,-1.3459627125,10.335797220700002,-0.026878070480712675,0.05482515512827187,-0.6821837547576336,-0.14617168734611952,-0.29897805337316596,2.723210930138521
1777261278.861802,0.24047867129999997,-0.1423729447,10.3992070196,-0.20280725908174108,0.01435533309765336,-0.7761042851305785,-0.16672428293634647,-0.29752327627566494,2.64456010876086
1777261278.9631665,-0.8961120637,-0.5503491979999999,10.0450692748,-0.28588493147667116,-0.08139779298988555,1.0801624574436406,-0.19570283009747289,-0.3057741126201523,2.7540501002515905
1777261279.0642476,-0.7920242806,0.3852444386,10.2029955664,-0.13255775668896932,0.08155050929943505,0.6617197692780001,-0.209101918316791,-0.29753089475250727,2.820937484185122
1777261279.1657293,-0.0131605243,-0.8434699665000001,10.7054883124,-0.10567968620825664,-0.0719293817978163,0.06444628262989062,-0.21982647000310496,-0.30483040897830765,2.8274776009649263
1777261279.2669787,0.622133876,0.3720839143,10.972288032300002,0.2822197400474831,-0.10812314716104872,0.5455026577108277,-0.19125187473635635,-0.3157778188532308,2.882709448525979
1777261279.3698926,-1.1222337994,-0.5922235935,10.5128660931,-0.4740314248416599,-0.16417003276571662,0.5867360612891938,-0.24003627677201045,-0.33267319004792417,2.943092719344595
1777261279.4731066,-0.5324030285,0.010767701699999998,10.2903335913,0.37537668887268044,-0.036804630601430424,0.3706424832766458,-0.2012921376355623,-0.33647194412924397,2.981348222063944
1777261279.5742486,0.8087740388,0.011964113,11.1493569047,0.36850445494295275,-0.1350012176417614,-0.4092797095926703,-0.1640208859866834,-0.3501262277834541,2.939952882478782
1777261279.6758392,-0.4019941968,-0.9990034355,10.742577062699999,-0.38438695113610116,0.013744467859455345,-0.28680122933396823,-0.20307099982034804,-0.3487299185879714,2.910816563933044
1777261279.7805455,0.12681959780000002,0.2703889538,9.162117735399999,0.2837469031429781,0.0757472895365539,-0.6772968328520494,-0.17336091503552994,-0.3407987011211954,2.839899327108142
1777261279.883574,1.2789636797000001,0.8063812161999999,10.4494562942,0.20036379812894903,-0.1032362252554646,-1.4144584590475047,-0.15271772627838284,-0.3514349782552133,2.694169743061879
1777261279.98491,1.0360921858,-0.0945164927,10.2927264139,0.3355177320802599,-0.01634064512179691,-0.4277583830481602,-0.11871770059188011,-0.35309087390767385,2.650822418552141
1777261280.0867045,-1.1976077113,-0.11246266220000001,10.4817593993,0.21395554967885486,-0.15622878466914242,0.1919644011037263,-0.09693820639588602,-0.3689941020036781,2.6703633351862344
1777261280.1876733,-1.2813565023,-0.4474578262,9.7160561673,0.33429600160386386,-0.1757764722914789,-0.5523748916405554,-0.06318472765347088,-0.386742048112641,2.6145906843816134
1777261280.2890532,-0.1040877831,-1.770688724,11.1768743646,-0.4489859500755413,-0.022143864884678056,0.13820826014230098,-0.10870286551835182,-0.3889869902862491,2.6286022200168913
1777261280.3903449,-0.31944181709999997,0.526420972,9.2279203569,0.012217304763960306,0.04291328298341058,0.035735616434583894,-0.10746535448091651,-0.3846402327672576,2.6322219398013895
1777261280.4917908,0.5288137946,0.1591227029,9.109475638200001,-0.1507309975253603,0.061086523819801536,-0.8707883970512709,-0.12275639818973046,-0.3784432545671304,2.543884015558576
1777261280.593675,0.1459621786,0.6017948839,9.6634140701,-0.005650503453331642,-0.014813482026301871,2.328160139082186,-0.12333209479928059,-0.3799525132462213,2.7810865780610574
1777261280.6951003,0.6017948839,0.2931207685,11.1206430335,0.13484850133221188,-0.16294830228932058,2.1949915171550187,-0.10965503035587475,-0.3964796115034286,3.0037144911358844
1777261280.796588,-1.4081761001,-0.6652046827999999,10.7461662966,-0.15790866407418697,-0.1153008137098754,1.8214474239969323,-0.125680807466084,-0.4081812185809992,3.1885688853268572
1777261280.897578,-0.1304088317,-1.2610175101999999,10.0809616138,0.13805554383275148,-0.14630222454842468,1.1540771512656005,-0.11173857022641126,-0.42295628857613915,3.305119202605847
1777261280.9988825,-1.1976077113,-0.1483550012,10.667203150799999,0.020311269170084013,0.0875064453718657,1.656208377064369,-0.10968094662714258,-0.414091489159741,3.472900615643959
1777261281.1000295,-0.34097722049999996,-0.1543370577,8.8713897895,-0.09300423251564784,-0.0716239491787173,0.7307475411943758,-0.1190880398198799,-0.42133603219322835,3.546813490729752
1777261281.201527,0.48933222169999996,0.0849452023,9.8356972973,0.1430951820478851,-0.22403482610912212,0.7275404986938363,-0.10456421509473618,-0.4440750405942805,3.6206571417335778
1777261281.3027098,-0.36370903520000003,-0.24287149389999999,8.8259261601,-0.1901318053891323,-0.07055493501187078,0.4987714669886795,-0.12380226436844148,-0.45121397936090846,3.6711241850491776
1777261281.4042475,0.6185446421,0.5682953675,8.084151154099999,0.07315111227421234,-0.04245513405476207,0.08002334620394001,-0.1163746683488536,-0.4555247762157006,3.6792495719265554
1777261281.5054307,-0.4331008906,-0.3146561719,9.5007021333,-0.4853324317483232,0.0033597588100890844,0.7750352709637319,-0.16548214522868065,-0.45518482514856523,3.757670102186191
1777261281.6068156,0.3505485109,0.0741775006,10.5786687146,0.2144136986075034,-0.005650503453331642,0.9822713030224087,-0.14374383851983072,-0.4557577007527158,3.857257558561777
1777261281.7078633,-0.3684946804,0.2931207685,10.719845247999999,0.1637118838370681,-0.20433442217723613,-0.5329799203277684,-0.12720112030788294,-0.47640523523740436,3.803401134532208
1777261281.8115637,0.143569356,-0.37567314820000003,10.277173067,0.03436116964863836,0.03497203488683638,-0.1638646001466176,-0.12363785329150909,-0.47277862125185055,3.7864083100496786
1777261281.9190972,-0.3302095188,-0.9523433948,10.417153189099999,-0.05009094953223726,0.01389718416900485,0.005497787143782138,-0.12902430615368263,-0.4712842090248451,3.786999506095527
1777261282.0205538,-0.35772697870000003,-0.5527420206,9.6717889492,-0.3515529445829578,-0.13332133823671685,-1.473712387152712,-0.16469168744932355,-0.48481054432940396,3.6374815957988567
1777261282.1216724,-1.1186445655,-0.6556333924,10.755737587,0.2748893571891069,-0.15363260740680088,1.2498302773531393,-0.13689527022497397,-0.5003456530670127,3.7638626394455663
1777261282.2229753,0.2344966148,-0.41156548719999997,10.1623175822,0.3860668305411457,0.03665191429188092,-3.4518467447474355,-0.09778559530327538,-0.4966327092453325,3.414180684439572
1777261282.3241065,0.2333002035,-0.32303105099999996,10.504491214000002,-0.27198774730766634,-0.06444628262989062,-2.089311830946762,-0.12529204278877698,-0.5031502391941711,3.202886070150326
1777261282.4264226,0.3302095188,-1.1808579531,10.021141048799999,0.12461650859239512,-0.038331793696925465,0.1711949830049938,-0.11254176250869156,-0.5070722004077758,3.220402080191963
1777261282.5292482,-0.3206382284,0.1459621786,9.010173500299999,0.047189339650796684,-0.036499197982331415,-1.1459831868594768,-0.10768948838090424,-0.5108252538593654,3.102565623703561
1777261282.6303644,-0.5324030285,-0.020338992099999998,9.688538707400001,-0.18005252895886503,-0.05482515512827187,-1.3629930627293216,-0.12589571238417205,-0.516368964136866,2.964744971261521
1777261282.7315621,0.42592242280000003,-1.3220344865,11.215159526199999,0.1547016215736474,-0.002138028333693054,-1.1053606485193088,-0.11024026106652293,-0.5165853277286202,2.8528849943245573
1777261282.8327823,0.06340979890000001,0.6005984726,9.7758767323,0.014049900478554353,-0.0836885376331281,-0.4891503394870608,-0.10881812830066492,-0.5250562924643831,2.803373132921914
1777261282.9337726,-0.12323036389999999,-0.1423729447,9.710074110799999,-0.29611692421648794,-0.05207626155638081,1.406364494641381,-0.1387230639532349,-0.5303154895028186,2.945402298690102
1777261283.0351534,0.4701896409,-1.1521440819,10.2161560907,0.477391183651749,-0.01435533309765336,-1.5544993149043995,-0.09032475188649772,-0.5317708450160218,2.787805875616744
1777261283.13617,0.36370903520000003,-0.0143569356,9.9696953629,0.012064588454410803,-0.0035124751196385882,-2.5836545249585057,-0.08910602912806077,-0.5321256630343009,2.526814082866917
1777261283.239197,-0.41156548719999997,-0.6209374647,9.9003035075,-0.12614367168789017,-0.19639317408066193,-1.2363912421127832,-0.10210224647794121,-0.5523594832666813,2.3994322721349173
1777261283.3403468,-0.04307080679999999,0.4450650036,10.060622621699999,0.14676037347707319,0.026878070480712675,-0.22632557075236467,-0.08725746442857885,-0.5496407718819906,2.3765394864979195
1777261283.4419334,0.287138712,-0.6305087550999999,9.6646104814,0.02641992155206416,-0.14431691252428114,-1.1507173924555114,-0.08457355494693153,-0.5643014335013935,2.2596420417336853
1777261283.5434809,1.1868400096,0.5539384319,10.194620687299999,-0.6548475353482724,-0.1389718416900485,-2.3057108415784087,-0.1510716717031494,-0.5784136737644902,2.0255029170169463
1777261283.6455774,0.2440679052,0.9224331123,10.7904335147,0.681420173209886,0.038942658935123484,0.5723807281915404,-0.08150101772751238,-0.5744377623427538,2.083941019011722
1777261283.7471635,-0.0059820565,-0.1746760498,10.170692461300002,-0.3404046539858441,0.02672535417116317,0.8494081137143403,-0.11608140011854803,-0.5717228377494693,2.170229079513714
1777261283.848494,0.48933222169999996,0.32303105099999996,9.621539674600001,0.01832595714594046,0.16707164264715718,0.2193006205130875,-0.11422442137486295,-0.554793381536207,2.1924509251464785
1777261283.9502034,0.1471585899,-0.3529413335,10.5439727869,-0.029626964052603743,-0.10247264370771707,-0.67408979035151,-0.1172377611005578,-0.5652158091441516,2.1238896800474216
1777261284.051473,0.6699903279999999,-0.12442677519999999,9.5294160045,0.22953261325290425,-0.0716239491787173,-2.1479548938137714,-0.09399311189481654,-0.5724691294884581,1.9063673972272281
1777261284.1559367,-0.051445685899999996,-0.062213387599999996,10.2640125427,0.36025777422727956,0.021227567027381034,-1.1791226260317191,-0.05635921016737733,-0.570251616838982,1.7831917485466184
1777261284.2572777,-0.0334995164,0.7262216591,10.831111498899999,0.3952298091141159,-0.12873984895023172,-1.8496999412635906,-0.01630622246953746,-0.5832982430481315,1.5957412898927403
1777261284.3592963,-0.34815568830000004,0.3732803256,10.0474620974,-0.06154467274845005,-0.07238753072646481,-0.7649559945334647,-0.022584923497179596,-0.5906831172096758,1.5177015542911039
1777261284.4603376,-0.7932206919,-0.7764709337,11.2331056957,0.2023491101530926,-0.08643743120501916,-0.6754642371374555,-0.0021393029163489403,-0.5994168690955249,1.4494517581937347
1777261284.56178,-0.5934200048,-0.9427721043999999,10.7066847237,0.06887505560682623,-0.036041049053682904,0.8510879931193849,0.004847543687901116,-0.6030729573407644,1.5357881132391573
1777261284.6640823,-1.3962119871,-0.36969109170000003,9.7651090306,-0.16829337312355322,-0.05207626155638081,-0.1317941751412218,-0.012369257620126648,-0.6084004793426132,1.5223052643019268
1777261284.765451,0.12323036389999999,-0.7238288365000001,9.9673025403,0.11255192013798433,-0.08979719001510825,-0.875064453718657,-0.0009600196543075434,-0.6175031006776223,1.433601148231176
1777261284.868257,-0.9116654106,-0.040677984199999996,9.661021247499999,-0.19486601098516687,-0.058337630247910464,0.5299255941367783,-0.020993432572590044,-0.6235005644196159,1.4880807272487624
1777261284.9693022,-0.1100698396,0.6005984726,10.5439727869,-0.1518000116922068,-0.035430183815484885,0.5493205654495653,-0.036332084743563094,-0.6270806120088168,1.5435868961209858
1777261285.0708802,-0.23928226,-0.502492746,9.3547399547,0.22479840765686965,-0.07269296334556383,0.47662760210400146,-0.01349751271831131,-0.6344646176365477,1.592001773356591
1777261285.1718457,-0.2799602442,0.5527420206,11.170892308100001,-0.09010262263420726,0.09773843811168245,0.23182335789614683,-0.02259476905288651,-0.6245964073753136,1.6154079345699557
1777261285.277853,0.6029912952,0.179461695,10.7605232322,-0.17058411776679577,-0.06979135346412325,0.277943683380097,-0.04067793720910434,-0.6319948029414654,1.6448720044395317
1777261285.3794308,-0.6245266986,0.2021935097,10.0319087505,0.1718058482431918,-0.056505034533316414,-0.32910364707918077,-0.023226284197707128,-0.6377344577096582,1.611442393559922
1777261285.4808688,-0.5922235935,0.215354034,10.140782178799999,0.43417246804923937,-0.06475171524898962,-0.04550946024575214,0.020815322371860907,-0.6443027451473989,1.6068260028607553
1777261285.5820286,-0.1639083481,-0.6245266986,10.4123675439,-0.36987890172889826,0.03497203488683638,-0.0755945732270044,-0.016601557427281664,-0.6407649807072653,1.5991788701189817
1777261285.6835804,-0.8147560952999999,-0.5814558918,9.607182739,0.4428772976935611,-0.03359758810089084,1.1698069311491994,0.028373416561799175,-0.6441768752857473,1.7179748358970366
1777261285.7850137,-0.17587246110000002,-0.2572284295,10.2879407687,-0.4830416871050806,-0.12370021073509811,2.03158506593705,-0.020623084751734536,-0.6567241930422956,1.9240451669036567
1777261285.8865833,-0.48933222169999996,-0.0777667345,10.480562988,0.47097709865066983,0.02275473012287607,3.5972326714385625,0.027213895520693608,-0.6544130030096783,2.2894148395097025
1777261285.9878185,-0.42831524540000004,-0.1950150419,10.325029519,-0.005650503453331642,0.0317649923862968,3.1496211681489674,0.026641865948725862,-0.6511972691996974,2.608267214976264
1777261286.093202,-0.6233302873,0.23928226,9.3643112451,-0.20555615265363217,-0.024129176908821607,3.2985195699597334,0.004979611474423426,-0.6537400895614655,2.9558771959498586
1777261286.1962354,-2.0183458631,-0.969093153,10.083354436399999,-0.17318029502913734,-0.14110987002374156,1.274875752119258,-0.012863726547266655,-0.668279105727287,3.087231857153623
1777261286.300896,0.7214360139,0.5072783912000001,11.267801623399999,0.49724430389318447,-0.1270599695451872,-3.2992831515074807,0.03917811639840975,-0.6815772670696711,2.741927196527581
1777261286.4080575,0.3804587934,-0.2967100024,10.4697952863,0.21731530848894395,-0.002901609881440573,-3.422983362242579,0.062465955590778416,-0.6818882080005602,2.3751150899515086
