field.header.stamp,field.orientation.x,field.orientation.y,field.orientation.z,field.orientation.w,field.angular_velocity.x,field.angular_velocity.y,field.angular_velocity.z,field.linear_acceleration.x,field.linear_acceleration.y,field.linear_acceleration.z
1776813861.2327569,0.0,0.0,0.0,1.0,0.0039706240482871,-0.0410806872688165,0.0,-0.1854437515,-0.0741775006,10.0989077833
1776813861.3341608,0.00020907740204476576,-0.0021138408479620496,8.184924255896984e-06,0.9999977439457134,0.0041233403578366,-0.0416915525070145,0.0001527163095495,-0.1782652837,-0.0634097989,10.0929257268
1776813861.4351072,0.0004480409121774616,-0.0042489663562084645,9.646537862192534e-06,0.9999908726839406,0.0047342055960346,-0.0423024177452125,0.0,-0.1818545176,-0.071784678,10.0989077833
1776813861.5359795,0.0007020316184563867,-0.006359423149887011,-1.8600737166159466e-05,0.9999795320619417,0.0050396382151336,-0.041844268816564,-0.000610865238198,-0.1806581063,-0.0669990328,10.097711372
1776813861.6368072,0.0009253002319169361,-0.008461187601846575,-7.536673622242593e-06,0.9999637753774112,0.0044287729769356,-0.0416915525070145,0.0001527163095495,-0.1806581063,-0.0646062102,10.0953185494
1776813861.7377553,0.0011244178078270634,-0.010650348970022061,-0.00011899255975088929,0.9999426441512439,0.0039706240482871,-0.043371431912059,-0.0022907446432425,-0.1818545176,-0.0669990328,10.0929257268
1776813861.8387158,0.001324045829991469,-0.012747168602419088,-0.00015261628138194937,0.9999178632785458,0.0039706240482871,-0.041538836197465,-0.0007635815477475,-0.1926222193,-0.0646062102,10.0965149607
1776813861.9395726,0.001508351876726885,-0.01481864160101995,-0.00015482552775798034,0.9998890482272382,0.003665191429188,-0.0410806872688165,-0.0001527163095495,-0.1758724611,-0.0622133875999999,10.0929257268
1776813862.0403707,0.0017158372400444136,-0.016942694333136818,-0.00014039327593372877,0.9998549801351332,0.0041233403578366,-0.042149701435663,0.0001527163095495,-0.1866401628,-0.0741775006,10.1024970172
1776813862.141215,0.001804432451884816,-0.01903716347016133,-0.0003121023871891644,0.9998170997850743,0.001832595714594,-0.041538836197465,-0.0035124751196385,-0.1830509289,-0.0658026215,10.0941221381
1776813862.2421677,-0.0014744544194641416,-0.021548851289297847,-0.0001393884834613169,0.9997666995670176,-0.0650571478680886,-0.0497855169131382,0.0047342055960346,-0.1208375412999999,0.0179461695,10.109675485
1776813862.3430169,-0.013899315388325825,-0.023193040858570668,-0.0004147015652031786,0.9996342930842661,-0.2464841236128992,-0.0326812902435938,0.000305432619099,-0.2380858487,-0.0251246373,10.0917293155
1776813862.4438436,-0.015619268631040496,-0.02535094487033697,0.00025013338355907636,0.9995565544154583,-0.0345138859581878,-0.0426078503643115,0.0146607657167523,-0.2476571390999999,-0.8937192411,10.0319087505
1776813862.5446434,-0.009734794220039296,-0.02744832580100271,0.00026347090249735416,0.9995757869092763,0.1168279768053704,-0.0416915525070145,-0.0022907446432425,-0.2380858487,-0.2045863322999999,10.1156575415
1776813862.6454368,-0.020234105661525333,-0.02965615520101619,-0.00011580861428258483,0.9993553322092881,-0.2084577625350727,-0.0438295808407076,-0.000916297857297,-0.1698904046,-0.6999006105000001,10.0115697584
1776813862.7471108,-0.008710074558804438,-0.03205877858531896,-5.07482117791806e-05,0.9994480310358396,0.2269364359905626,-0.0473420559603461,-0.0050396382151336,-0.1292124204,-0.3972085515999999,10.090532904199998
1776813862.8480515,-0.003988848521327244,-0.03432322607147333,3.7731286637532715e-05,0.9994028235981078,0.0936150977538458,-0.0448985950075541,-0.0010690141668465,-0.1124626622,-0.1064806057,10.0689975008
1776813862.9488418,-0.010996161925268123,-0.03649865362427535,-0.0002730325286032609,0.9992731649352777,-0.139124557999598,-0.0432187156025095,-0.000916297857297,-0.1423729447,-0.4654039956999999,10.0450692748
1776813863.0496342,-0.015370443123384012,-0.038788714280732266,-0.0004681408719954544,0.9991291037532449,-0.0868955801336676,-0.0455094602457521,0.0,-0.1758724611,-0.4462614149,10.1036934285
1776813863.1504362,-0.014877421053631048,-0.04081889617550299,-0.000494664927106575,0.9990556718043376,0.0097738438111682,-0.040317105721069,-0.000305432619099,-0.1950150419,-0.3481556883,10.0965149607
1776813863.2513433,-0.011728274618143813,-0.04285791360489458,-0.0005821002447108779,0.9990121660796839,0.0626136869152965,-0.0404698220306185,-0.0038179077387375,-0.1722832271999999,-0.4199403663,10.0725867347
1776813863.3522289,-0.010210752597265995,-0.044859767145183936,-0.0005221081001211109,0.9989409738449059,0.0300851129812522,-0.039706240482871,0.000305432619099,-0.2105683888,-0.3720839143,10.0989077833
1776813863.4542313,-0.01021657550841317,-0.046976186061102994,-0.0005207533413245013,0.9988436255710855,-0.0001527163095495,-0.041538836197465,0.0004581489286485,-0.0945164927,-0.1591227029,10.1276216545
1776813863.5554876,-0.008383539443338257,-0.04920919633907801,-0.0004147909432286612,0.9987532223780495,0.0361937653632324,-0.0441350134598066,0.0007635815477475,-0.0406779841999999,-0.0143569356,10.1491570579
1776813863.6566465,-0.005390975137477581,-0.0507530007550309,-0.0002987771227776263,0.998696641144676,0.0592539281052074,-0.0305432619099007,-0.0004581489286485,-0.1758724611,-0.3577269787,10.0821580251
1776813863.7576988,0.00030392876712831884,-0.05199458658794121,-0.00015499466785112194,0.9986473083974676,0.1130100690666328,-0.0245873258374701,-0.0029016098814405,-0.3960121403,-0.1375872994999999,10.0570333878
1776813863.8600466,-0.007276251231352931,-0.05427029516762549,-0.0006129228458657924,0.9984995821511503,-0.1482875365725682,-0.0445931623884551,-0.000916297857297,-0.3481556883,-0.1232303638999999,10.1060862511
1776813863.9617257,-0.0021086966414214357,-0.0568773019436383,-0.0003915607272848326,0.998378872273589,0.101861778469519,-0.0513126800086332,-0.0010690141668465,-0.2021935097,-0.4031906080999999,10.086943670299998
1776813864.0638227,0.002782287928747305,-0.05922910537917956,-0.0001682737098523329,0.9982405239389062,0.0960585587066379,-0.0461203254839501,-0.001221730476396,-0.1950150419,-0.2344966148,10.097711372
1776813864.165629,-0.006803592352870529,-0.06114108214923319,-0.0007886664569810981,0.9981056342942545,-0.1886046422936372,-0.0377209284587274,-0.0007635815477475,-0.2009970984,-0.047856452,10.1312108884
1776813864.2674918,-0.008613077030439835,-0.06325087688062318,-0.0009331167695220565,0.9979600546970777,-0.0355829001250343,-0.041538836197465,-0.000305432619099,-0.1734796385,-0.6209374647,10.086943670299998
1776813864.368806,-0.015857212967600162,-0.06534107419757564,-0.0014870729259663944,0.9977358775917201,-0.1432478983574346,-0.041538836197465,-0.001221730476396,-0.1591227029,-0.263210486,10.1228360093
1776813864.4704869,-0.015586643455097022,-0.06781552780189266,-0.003805942332490826,0.9975688575420325,0.0083993970252227,-0.0494800842940392,-0.0455094602457521,-0.0969093152999999,-0.2715853651,10.2783694783
1776813864.571482,-0.016288654306183918,-0.06981666345716167,-0.011403435152737541,0.9973616570288435,-0.003359758810089,-0.042149701435663,-0.1499674159776127,-0.035892339,-0.3936193176999999,10.2843515348
1776813864.6744125,-0.017384988382077627,-0.0720691884551817,-0.011538238061330712,0.9971813592906792,-0.020922134408282,-0.0441350134598066,-0.0004581489286485,-0.2117648001,-0.5216353268,10.1144611302
1776813864.776047,-0.017732329039624482,-0.07386192608323251,-0.014262250648192016,0.9970088106875254,-0.0025961772623415,-0.0363464816727819,-0.0529925594136778,-0.2835494781,-0.5946164161,10.0414800409
1776813864.87773,-0.02208551537881775,-0.07403880902984403,-0.029233337836721433,0.9965821073683887,-0.0641408500107916,-0.0106901416684652,-0.2904664207631562,-0.2751745989999999,-0.5994020613,9.9864451211
1776813864.978982,-0.02185592949679941,-0.07749720473198002,-0.0286269807732339,0.9963418076023757,0.0053450708342326,-0.0681114740590787,0.0128281700021583,-0.2548356069,-0.346959277,10.0941221381
1776813865.0802617,-0.01757204605713612,-0.07949919534675247,-0.026951735074808764,0.9963155650259823,0.0836885376331281,-0.0368046306014304,0.0271835030998116,-0.3517449222,-0.8805587168,10.2628161314
1776813865.1817472,-0.018186101346844324,-0.08174863594388966,-0.02687469865102044,0.9961245789616542,-0.0113010069066632,-0.0447458786980046,0.00305432619099,-0.0753739119,-0.8721838377000001,9.9816594759
1776813865.2830043,-0.01832296476070818,-0.08407025079131882,-0.02704400534800755,0.9959242359080329,-0.0013744467859455,-0.0461203254839501,-0.0025961772623415,-0.1328016543,-0.4151547210999999,10.1479606466
1776813865.3844292,-0.020419693828463013,-0.08580942918626723,-0.02735329623282445,0.9957266568450792,-0.0404698220306185,-0.0355829001250343,-0.002138028333693,-0.2380858487,-0.6125625856,10.0881400816
1776813865.486592,-0.02106546116908025,-0.08788149979619393,-0.02749318262411931,0.9955286099598055,-0.0116064395257622,-0.0410806872688165,-0.0010690141668465,-0.1770688724,-0.6149554081999999,10.0881400816
1776813865.587572,-0.022015000951082525,-0.09004299310711951,-0.027678952931242992,0.9953097380665303,-0.0177150919077424,-0.0435241482216085,-0.0013744467859455,-0.2033899209999999,-0.5252245607,10.1168539528
1776813865.6891055,-0.022589866654504236,-0.0919039988381588,-0.02772981152501825,0.9951253240044062,-0.0105374253589157,-0.0371100632205294,0.000610865238198,-0.1890329854,-0.5276173833,10.1084790737
1776813865.7902565,-0.023499653289326603,-0.09370797632698404,-0.027897327480247456,0.99493131450741,-0.0171042266695444,-0.0363464816727819,-0.0010690141668465,-0.2081755662,-0.6592226263,10.0761759686
1776813865.891565,-0.024292005270871362,-0.09564298315188141,-0.028310565138735748,0.9947164571651835,-0.0142026167881038,-0.0389426589351234,-0.0061086523819801,-0.2416750825999999,-0.7334001269,10.0474620974
1776813865.9928238,-0.025577308504592028,-0.09671756975503681,-0.028660153462606076,0.9945703135494446,-0.0245873258374701,-0.022143864884678,-0.0041233403578366,-0.2608176634,-0.7429714173,10.061819033
1776813866.0943122,-0.026101792845952106,-0.09853808827836918,-0.029073551301827597,0.9943659639103559,-0.0088575459538712,-0.0364991979823314,-0.0065668013106286,-0.3182454058,-0.8135596839999999,9.9984092341
1776813866.1953137,-0.023280279324443823,-0.10006678742905085,-0.030873914310137272,0.994229082286057,0.0610865238198015,-0.0296269640526037,-0.0413861198879155,-0.5036891573,-0.4235296002,10.1072826624
1776813866.2969449,-0.018095735365183527,-0.10257696607356956,-0.02917545951148706,0.994132437331681,0.1014036295408705,-0.0461203254839501,0.0239764605992721,-0.3373879865999999,-0.5036891573,10.1611211709
1776813866.3979547,-0.025049044130765204,-0.10364418224328371,-0.037262272256467506,0.9936004991653038,-0.1223257639491525,-0.0285579498857572,-0.1479821039534692,-0.1770688724,-1.6881363443,9.9170532657
1776813866.499497,-0.02709014024343129,-0.10507842384582958,-0.03753790428825452,0.9933859043117701,-0.0394008078637719,-0.0299323966717027,-0.0007635815477475,-0.2189432679,-0.6723831506,10.0474620974
1776813866.6006231,-0.029349211005351362,-0.10685620765746966,-0.03792493850256995,0.9931173514434251,-0.0435241482216085,-0.0371100632205294,-0.0022907446432425,-0.2225325018,-0.5611168997,10.0713903234
1776813866.702057,-0.03157817184356477,-0.10836301050576676,-0.03827339526082017,0.9928723101347697,-0.04306599929296,-0.0316122760767473,-0.001527163095495,-0.1722832271999999,-0.5240281494,10.1491570579
1776813866.8036337,-0.03258935108206017,-0.10969947188390032,-0.03831422584356321,0.9926912813974202,-0.0193949713127869,-0.0271835030998116,0.0019853120241435,-0.299102825,-0.6496513358999999,10.0546405652
1776813866.9047482,-0.0329264457911519,-0.11211375763141361,-0.03885800471351878,0.9923892431838482,-0.0041233403578366,-0.0485637864367422,-0.0091629785729702,-0.1830509289,-0.7429714173,10.0546405652
1776813867.006305,-0.033474026808885254,-0.11410229649188709,-0.0390091811737243,0.9921383165913062,-0.0094684111920692,-0.0398589567924205,-0.000916297857297,-0.23928226,-0.7010970218,10.073783146
1776813867.1075225,-0.03367075586776067,-0.11583901489463472,-0.0390243629625861,0.9919297867908285,-0.0029016098814405,-0.0346666022677373,0.000916297857297,-0.2380858487,-0.5527420206,10.1491570579
1776813867.2090745,-0.035145624942059014,-0.11751578844805598,-0.03818959361649297,0.9917138596653124,-0.0306959782194502,-0.0337503044104403,0.0210748507178315,-0.2285145583,-0.7022934331,10.0199446375
1776813867.310418,-0.03387415291504242,-0.1197961879570009,-0.03773242526523359,0.9915027378675578,0.0258090563138661,-0.0441350134598066,0.0071776665488266,-0.2931207685,-0.777667345,10.0534441539
1776813867.4118686,-0.03436760593941708,-0.12146443761253191,-0.0377391059398445,0.9912825116687601,-0.0090102622634207,-0.0334448717913413,0.001832595714594,-0.2656033086,-0.7046862557000001,10.0713903234
1776813867.5128846,-0.035051535369451436,-0.12331034504984063,-0.037986509864783885,0.9910211772410447,-0.0122173047639603,-0.0374154958396284,-0.002443460952792,-0.2416750825999999,-0.7357929495000001,10.0761759686
1776813867.6143568,-0.03384495360148756,-0.12565002978043854,-0.03781019593611056,0.990775947535648,0.0251981910756681,-0.0455094602457521,0.001527163095495,-0.2811566554999999,-0.6795616184,10.0941221381
1776813867.715416,-0.03526596110777819,-0.12717337788046124,-0.03800386493560183,0.9905245833373215,-0.0274889357189106,-0.0314595597671977,0.0004581489286485,-0.2333002035,-0.6544369810999999,10.0881400816
1776813867.816862,-0.0347769020890756,-0.12926416407304767,-0.0398280043740031,0.9901995117324425,0.0158824961931484,-0.0423024177452125,-0.0372627795300789,0.1878365741,-0.0945164927,9.9110712092
1776813867.91793,-0.031210617173596276,-0.1304741069994985,-0.039538791625658716,0.9901712421268906,0.0723875307264648,-0.0213802833369305,-0.0032070425005395,-0.2883351233,-0.4199403663,10.1001041946
1776813868.019379,-0.03202572888009311,-0.13191514651928204,-0.038324084840049115,0.9900020259220018,-0.0189368223841384,-0.0285579498857572,0.0273362194093611,-0.3302095188,-1.1306086785,9.9385886691
1776813868.1208997,-0.03280863358849033,-0.13455548355154812,-0.03860084012976182,0.9896102215264058,-0.0135917515499058,-0.0531452757232273,-0.002443460952792,-0.1531406464,-0.71784678,10.0366943957
1776813868.2220602,-0.03282970331017135,-0.1367425521569202,-0.0386906512667859,0.9893061803682064,0.0010690141668465,-0.0436768645311581,-0.000916297857297,-0.1710868159,-0.4450650036,10.1240324206
1776813868.3237343,-0.03234959103785967,-0.13899108758998835,-0.03868800567316782,0.9890087055973108,0.0109955742875642,-0.0442877297693561,-0.0004581489286485,-0.1782652837,-0.4689932296,10.1276216545
1776813868.4250655,-0.032485403447403575,-0.1410619540133842,-0.03876022222778684,0.9887081818543012,-0.0013744467859455,-0.0413861198879155,-0.000305432619099,-0.215354034,-0.3565305674,10.1503534692
1776813868.5265212,-0.03312486388944336,-0.14331474659631063,-0.039164288420878816,0.9883469964100803,-0.0105374253589157,-0.0455094602457521,-0.0054977871437821,-0.1495514125,-0.6460621019999999,10.086943670299998
1776813868.6275144,-0.033571783837109806,-0.1451976906774475,-0.039257645896022,0.9880533402557947,-0.0077885317870246,-0.0380263610778264,0.0001527163095495,-0.2261217357,-0.5335994398,10.0989077833
1776813868.728959,-0.03500376349839581,-0.14693426431222,-0.03949688791199935,0.9877373407729617,-0.0274889357189106,-0.0357356164345838,0.0001527163095495,-0.2476571390999999,-0.5132604477,10.1084790737
1776813868.8299935,-0.03557592105423141,-0.14880761643265542,-0.03924871880499018,0.987446294845923,-0.0114537232162127,-0.0377209284587274,0.0076358154774751,-0.3768695595,-0.4139583098,10.1084790737
1776813868.9313838,-0.03597201489260745,-0.15085924610621612,-0.03909057274320226,0.9871268556428999,-0.0074830991679256,-0.0410806872688165,0.0053450708342326,-0.2404786712999999,-0.6592226263,10.0965149607
1776813869.0325625,-0.036331545121921376,-0.1535428981401953,-0.03623294866042845,0.9868088825558545,-0.0151189146454008,-0.0520762615563808,0.060933807510252,-0.2309073809,-0.3290131074999999,10.0187482262
1776813869.1394453,-0.03435632838265165,-0.1571336449103725,-0.029763503726160854,0.9865306858801641,0.0198531202414355,-0.063071835843945,0.121256749782306,-0.5778666579,-0.5407779076,10.0223374601
1776813869.2411518,-0.029196824661924015,-0.15958767277460986,-0.030788814932920433,0.9862714479305742,0.1098030265660932,-0.0467311907221481,-0.0369573469109799,-0.4857429877999999,-0.7932206919,10.6097754084
1776813869.3428764,-0.031039515743294426,-0.16166185496001248,-0.028010520459171934,0.9859601431381068,-0.0462730417934996,-0.0407752546497175,0.0638354173916926,-0.4007977855,-0.9990034355,10.0606226217
1776813869.4440515,-0.03803061250741276,-0.16415120488982457,-0.03160091109507657,0.9851951262889452,-0.1310305935934743,-0.0555887366760194,-0.0488692190558412,-0.0622133875999999,-0.7345965382,9.8512506442
1776813869.5455754,-0.0354445236923352,-0.16745354730866074,-0.029487327818363697,0.9848012452937405,0.0468839070316976,-0.0632245521534946,0.0361937653632324,-0.215354034,-0.4689932296,10.5475620208
1776813869.6468887,-0.0361536239700439,-0.1682832809778176,-0.028548694773074274,0.9846616803978548,-0.0177150919077424,-0.0163406451217969,0.0222965811942275,-0.1172483074,-0.5491527867,9.7926264905
1776813869.7484558,-0.034043271761397764,-0.16989538900426618,-0.030492464982039932,0.9844017584412311,0.0508545310799847,-0.0323758576244948,-0.0467311907221481,-0.4773681086999999,-1.0731809361,10.4123675439
1776813869.8497264,-0.02860051128623295,-0.17282740108452196,-0.027723713669397753,0.9841463792998038,0.1035416578745636,-0.0545197225091728,0.0387899426255739,-0.3553341561,-0.3326023413999999,10.3704931484
1776813869.9511898,-0.02339294469069305,-0.1750044474449033,-0.02511970502750631,0.9839691122858141,0.0988074522785289,-0.04001167310197,0.0354301838154848,-0.6795616184,-0.7501498851,10.420742422999998
1776813870.0522752,-0.01786928158972378,-0.17758951730998704,-0.028560590051812475,0.9835278058158627,0.1285871326406822,-0.0503963821513362,-0.0916297857297023,-0.5790630692000001,-0.9607182739,10.4697952863
1776813870.1535964,-0.017886420760570378,-0.17942102911295746,-0.03172577370301041,0.9830979836961159,0.0125227373830593,-0.0375682121491779,-0.0655152967967371,-0.2656033086,-0.6149554081999999,10.085747259
1776813870.2546544,-0.018959773102027126,-0.18096296679723836,-0.03211728827953144,0.9827824842992628,-0.020005836550985,-0.0317649923862968,-0.0039706240482871,-0.3146561719,-0.5048855686,10.1264252432
1776813870.3560164,-0.0182348937161165,-0.18304967623940172,-0.031995736959063346,0.9824136488751868,0.0157297798835988,-0.0413861198879155,-0.0001527163095495,-0.2644068973,-0.5730810127,10.1120683076
1776813870.457445,-0.017612647813953313,-0.1856199866969844,-0.03195660079078847,0.9819438837537974,0.0142026167881038,-0.0511599636990837,-0.001527163095495,-0.2811566554999999,-0.6173482308,10.0833544364
1776813870.5586298,-0.017987827633368824,-0.1876113721928578,-0.03211092917675485,0.981553513216855,-0.0061086523819801,-0.040317105721069,-0.0016798794050445,-0.2799602442,-0.5431707302,10.1072826624
1776813870.6602948,-0.017931906344967656,-0.18979256797009406,-0.032242201976512334,0.9811308109981351,0.0029016098814405,-0.0436768645311581,-0.0029016098814405,-0.2416750825999999,-0.4773681086999999,10.16949605
1776813870.761294,-0.01859504809923517,-0.19104192384221672,-0.03423564843191186,0.9808084052949885,-0.0050396382151336,-0.0261144889329651,-0.0390953752446729,-0.3361915753,-0.3433700430999999,10.001998468
1776813870.863198,-0.01807718160353859,-0.19333597992410262,-0.034178308820099035,0.9803704695564108,0.0119118721448612,-0.0455094602457521,-0.000916297857297,-0.2201396792,-0.4797609312999999,10.170692461300002
1776813870.9644454,-0.018325697707209786,-0.195344617690119,-0.03429245031303061,0.9799636100358897,-0.0035124751196385,-0.040622538340168,-0.0013744467859455,-0.3146561719,-0.5718846014,10.109675485
1776813871.065992,-0.01930076878278486,-0.19706631548040587,-0.03457539293315605,0.9795901642171019,-0.0181732408363909,-0.0352774675059353,-0.001832595714594,-0.2488535503999999,-0.6460621019999999,10.0797652025
1776813871.1671002,-0.02060547555701936,-0.19802885656043892,-0.034716406167273756,0.9793644661152777,-0.0262672052425146,-0.020311269170084,0.0025961772623415,-0.2488535503999999,-0.6065805291,10.085747259
1776813871.2688203,-0.0220955079621298,-0.19998976299551205,-0.03431762964935698,0.9789474876213452,-0.0317649923862968,-0.0401643894115195,0.0148134820263018,-0.2739781877,-0.6472585133,10.0821580251
1776813871.369846,-0.02408078081822697,-0.1979311943245587,-0.04301412792179819,0.9789755579724988,-0.0058032197628811,0.0372627795300789,-0.1750128907437314,-0.4223331889,-0.4103690759,9.7770731436
1776813871.4715629,-0.02091622100324636,-0.20022747959471796,-0.043329054460078106,0.9785673513630453,0.0693332045354747,-0.0435241482216085,-0.0201585528605345,-0.5718846014,-0.0466600407,10.2400843167
1776813871.5726764,-0.01635032313151881,-0.20390038312750394,-0.04642212142078668,0.977753694616771,0.1130100690666328,-0.0707076513214202,-0.0858265659668211,-0.0418743954999999,-0.4211367776,10.0486585087
1776813871.6739955,-0.018129918017354432,-0.20800736942470407,-0.05218917384261795,0.9765656815961349,-0.0076358154774751,-0.0853684170381726,-0.1151480974003258,-0.0538385085,-0.753739119,9.8739824589
1776813871.7758155,-0.019295230090787117,-0.21040270520875776,-0.04675356019814772,0.9763055363693163,-0.0467311907221481,-0.0482583538176432,0.1192714377581625,-0.3565305674,-1.1473584366999998,10.2281202037
1776813871.8768628,-0.020532407360418406,-0.21175526376813325,-0.046979943230771,0.975976953338811,-0.0239764605992721,-0.0285579498857572,0.000610865238198,-0.2656033086,-0.3182454058,10.145567824
1776813871.9786255,-0.021708440407359197,-0.21337540515709333,-0.04743972308338949,0.9755763182667451,-0.021227567027381,-0.0337503044104403,-0.0045814892864851,-0.2380858487,-0.7118647235000001,10.013962581
1776813872.0797403,-0.021301147638205807,-0.2155303529607725,-0.047419613601802045,0.9751124593131584,0.0105374253589157,-0.0432187156025095,-0.001832595714594,-0.1818545176,-0.4331008906,10.2125668568
1776813872.18108,-0.026447926417037436,-0.21501697139513004,-0.04828453494091032,0.9750573382554713,-0.1056796862082566,0.0053450708342326,0.0058032197628811,-0.2201396792,0.0311066937999999,9.8392865312
1776813872.2821612,-0.028445143578764553,-0.2173790576663319,-0.048974029426377574,0.974442796441446,-0.0372627795300789,-0.0499382332226877,-0.0053450708342326,-0.0646062102,-0.4331008906,10.1874422195
1776813872.384168,-0.028199471646358207,-0.22023153951019578,-0.048757478547756083,0.9738200896929065,0.0065668013106286,-0.0569631834619649,0.003359758810089,-0.2751745989999999,-0.6556333924,10.04985492
1776813872.4851706,-0.03180422353248258,-0.2181627807750436,-0.058613164534931976,0.9736313416243322,-0.0313068434576482,0.0343611696486383,-0.1936442805087708,-0.1124626622,0.0346959277,9.7399843933
1776813872.586679,-0.02317507174377345,-0.22256719391451152,-0.054423966524736286,0.9731211600363059,0.1679879405044542,-0.0780380341797964,0.0470366233412471,-0.4618147618,-1.2897313814,10.309476172099998
1776813872.6876688,-0.010685491538957786,-0.22272011951195494,-0.05137767693559282,0.9734690046158907,0.2525927759948793,0.0106901416684652,0.0042760566673861,-0.2739781877,-2.5471596577,9.5078806011
1776813872.789328,-0.047101954660726246,-0.2244757693508536,-0.06585361685070318,0.9711103624146753,-0.7023423076181682,-0.0817032256089845,-0.1310305935934743,-0.1627119367999999,-0.1208375412999999,9.45164927
1776813872.8916812,-0.054625213865578205,-0.22573448033538196,-0.07052003257099092,0.9700963639783633,-0.1351539339513109,-0.0380263610778264,-0.0616973890579995,-0.3900300838,-0.6807580296999999,10.097711372
1776813872.9929593,-0.05016972199817836,-0.22883827582475602,-0.06867937095841678,0.9697418143593347,0.0894917573960092,-0.0557414529855689,0.0178678082172919,-0.263210486,-0.0023928226,10.1754781065
1776813873.0943696,-0.04557313274316292,-0.23360846012800457,-0.054748348938686145,0.9697178946565255,0.0310014108385492,-0.081245076680336,0.2777909670705474,-0.2009970984,-0.6137589969,10.0271231053
1776813873.1955843,-0.044996782168868724,-0.23523220194757877,-0.05404554520974404,0.9693916544948807,0.0099265601207177,-0.0319177086958463,0.0126754536926088,-0.2488535503999999,-0.1052841944,10.2855479461
1776813873.297163,-0.04690681669529401,-0.23682507266128133,-0.05382892671212169,0.9689252201049954,-0.041233403578366,-0.0339030207199898,0.0152716309549503,-0.2943171798,-0.4749752861,10.3034941156
1776813873.3981595,-0.0513126486694852,-0.23778615820350604,-0.054699089944254445,0.968417660213097,-0.0904080552533062,-0.0244346095279206,0.0050396382151336,-0.4510470601,-0.4331008906,10.1862458082
1776813873.4993982,-0.04632171342397554,-0.24109646078094196,-0.04054948161999905,0.9685466096191345,0.0335975881008908,-0.0516181126277323,0.2819143074283841,-0.2931207685,-0.4486542375,10.4075818987
1776813873.600636,-0.04035131542049664,-0.24267715074820057,-0.03491079455527957,0.968638636578208,0.0995710338262765,-0.0242818932183711,0.0908662041819547,-0.3720839143,-0.6747759731999999,10.253244841
1776813873.7020638,-0.037973497823791585,-0.2436704694311108,-0.03181646674513848,0.9685919823300748,0.0349720348868363,-0.0167987940504454,0.0546724388187223,-0.3050848815,-0.3577269787,10.1252288319
1776813873.8032196,-0.04261584813129185,-0.24478855178782521,-0.03661344216833694,0.9679472662569257,-0.0745255590601578,-0.0287106661953067,-0.0783434667988954,-0.3206382284,-0.6903293201,10.1778709291
1776813873.904713,-0.03673228022676003,-0.2466653041981855,-0.028536846489430532,0.9679837889585744,0.0836885376331281,-0.0294742477430542,0.1440114799051821,-0.0454636294,-0.4271188341,9.9397850804
1776813874.005988,-0.03260570974610178,-0.2514457274471872,-0.01357562366185076,0.9672267656980444,0.0058032197628811,-0.0864374312050191,0.3063489169563047,-0.0705882667,-0.3756731482,10.5427763756
1776813874.10728,-0.02854736875373302,-0.2606158040749994,0.008230000053662038,0.9649853457450517,-0.0423024177452125,-0.1728748624100383,0.4628831342445461,0.5108676251000001,-0.7992027483999999,9.978070242
1776813874.2082798,-0.025228400575330122,-0.26212772043525606,0.026388734508617007,0.9643423773094598,-0.0364991979823314,-0.0197004039318859,0.3834706532788041,-0.2213360905,-1.4189438018,10.4506527055
1776813874.309799,-0.020284028363049517,-0.26227767742669594,0.03460281013576233,0.9641585054583781,0.059712077033856,-0.0013744467859455,0.1516472953826573,-0.0526420972,-1.0444670649,10.144371412699998
1776813874.4108243,-0.019427564660169955,-0.2621063410173377,0.034643911387130896,0.9642212583912878,0.0189368223841384,0.002748893571891,-0.0044287729769356,-0.3050848815,-0.4534398827,10.2197453246
1776813874.5123012,-0.018839191316134103,-0.2644686859875999,0.03762531944016727,0.9634758607975457,-0.0083993970252227,-0.0467311907221481,0.0653625804871876,0.1016949604999999,-0.4151547210999999,10.145567824
1776813874.6138856,-0.022447464982677738,-0.27172468599564265,0.03579333939188688,0.9614471608942419,-0.0798706298943905,-0.1456913593102266,-0.0082466807156732,-0.0394815729,-0.4773681086999999,10.2281202037
1776813874.7151778,-0.031186917492328478,-0.28225067591427216,0.03404785416159716,0.9582289265881373,-0.2021963938435431,-0.2084577625350727,0.0340557370295393,0.2237289131,-1.052841944,9.9840522985
1776813874.816847,-0.016475179857010178,-0.2700673110186196,0.041143538675707705,0.961820890391289,0.303141874455765,0.239153740754523,0.0453567439362026,0.6269195211999999,-0.8231309743999999,9.7770731436
1776813874.9180737,-0.014320911092891277,-0.26985633598581615,0.04204364415089492,0.9618756683793872,0.0426078503643115,0.0025961772623415,0.0064140850010791,0.4175475436999999,0.3373879865999999,10.3190474625
1776813875.019783,-0.00865241692176847,-0.2710972517470944,0.04340736583401242,0.961533783269177,0.1149953810907764,-0.0305432619099007,-0.0032070425005395,-0.1399801221,-0.7453642399,10.0701939121
1776813875.120899,-0.006532675117057119,-0.27308761473165893,0.04199765397069032,0.9610497780536376,0.0531452757232273,-0.0436768645311581,-0.042455134054762,-0.1782652837,0.1280160091,10.255637663599998
1776813875.2268426,-0.011310212526773942,-0.27539352399405354,0.03772228422620378,0.9605246042176606,-0.0791070483466429,-0.0426078503643115,-0.0598647933434055,-0.263210486,-0.7908278692999999,10.0055877019
1776813875.3283658,-0.015683721221512986,-0.28102518384747094,0.0364790372230528,0.9588785881306454,-0.0980438707307814,-0.1117883385902368,0.0074830991679256,-0.1004985492,-0.5635097223,10.0570333878
1776813875.429607,-0.01942914934700149,-0.2880025044494241,0.03922583079836933,0.956628663476424,-0.1142317995430288,-0.1377501112136524,0.0971275728734844,-0.1423729447,0.2739781877,10.0654082669
1776813875.5316489,-0.016524728909450642,-0.29086886431139053,0.028400771443961997,0.9561985323613811,0.1342376360940138,-0.0684169066781777,-0.2593122936150575,0.0801595571,-0.5431707302,9.7447700385
1776813875.6329284,-0.007362898365451925,-0.2969229967045891,0.045245937964532475,0.9538004649051792,0.081550509299435,-0.1243110759732961,0.3283400655314332,0.2656033086,-0.729810893,10.1312108884
1776813875.7345464,0.0034994024321289598,-0.2927188649846556,0.07965878557108816,0.9528682480521913,0.0142026167881038,0.0873537290623162,0.7018841586895197,-0.6843472636,-1.7383856189,10.5020983914
1776813875.837357,0.004607897441196513,-0.30221526080953115,0.09850020656345386,0.9481257367680488,-0.1350012176417614,-0.1838704366976026,0.4387539573357245,-0.3756731482,-0.5599204884,10.3585290354
1776813875.938337,0.0052792563699317965,-0.313292293925733,0.11138836698968757,0.9430867933113597,-0.121256749782306,-0.2208277836085825,0.3255911719595422,0.143569356,-1.0564311779,9.9206424996
1776813876.0397449,0.004779819594307497,-0.3199356941208214,0.11723289474395501,0.9401461340355695,-0.0839939702522271,-0.1302670120457267,0.161573855503375,0.6448656907,-1.1772687192,9.9206424996
1776813876.1409638,0.03170383287195475,-0.28908066194008647,0.12830875100719585,0.9481371748267664,0.6511823439190844,0.5624541680708226,-0.0171042266695444,0.4749752861,-1.1210373881,9.7304131029
1776813876.2425582,0.028946838492265488,-0.2920813522381542,0.1273369495173044,0.9474364704314805,-0.0656680131062866,-0.0536034246518758,0.002748893571891,-0.3864408499,0.0969093152999999,10.201799155099998
1776813876.34371,0.034949989942754306,-0.2893523336703181,0.12927549032473373,0.9478088271396515,0.1313360262125733,0.0392480915542224,-0.001832595714594,0.1471585899,-0.9786644434,9.9314102013
1776813876.445406,0.04882238458901393,-0.28965690410643263,0.13243047254601925,0.9466664790768485,0.2881756761199137,-0.0452040276266531,-0.0207694180987325,-0.2452643165,-0.4103690759,10.0881400816
1776813876.5464008,0.04480828994662886,-0.29230607657822344,0.1260956641176111,0.9469156552926155,-0.0543670061996233,-0.0423024177452125,-0.1143845158525783,-0.1220339526,0.2009970984,10.1132647189
1776813876.6478548,0.02972301286860665,-0.29529548029544894,0.11558918568042365,0.9479220758990843,-0.2756529387368544,-0.021838432265579,-0.1322523240698703,-0.4522434714,-0.6807580296999999,10.0414800409
1776813876.7489011,0.027445939587271997,-0.29580341231661395,0.109029983563854,0.9486092579909204,-0.0062613686915296,-0.0058032197628811,-0.1346957850226623,-0.5036891573,-0.6197410534,10.0067841132
1776813876.8504095,0.03184353876721752,-0.29752135368458094,0.11007945357279503,0.947813033800227,0.0870482964432171,-0.0456621765553016,-0.0035124751196385,-0.3266202849,-0.287138712,10.1024970172
1776813876.9519806,0.02877640224780016,-0.3003397140989161,0.10878031520490812,0.947172010688964,-0.0687223392972767,-0.0505490984608857,-0.0032070425005395,-0.1004985492,-0.6125625856,10.0510513313
1776813877.053118,0.026736190018658543,-0.3041589328305949,0.10795864902379168,0.946106468545479,-0.0523816941754798,-0.0739146938219598,0.0029016098814405,-0.1124626622,-0.3888336725,10.085747259
1776813877.154534,0.02920808082456018,-0.3080591203955932,0.11293474189542847,0.9441886519274908,0.0068722339297276,-0.0853684170381726,0.1056796862082566,-0.1830509289,-0.5347958510999999,10.1252288319
1776813877.2555678,0.03110710972520684,-0.31081450615603,0.11849234757698421,0.9425424415129656,-0.0080939644061237,-0.0607810912007025,0.1223257639491525,0.0765703232,-0.5611168997,10.0366943957
1776813877.3571043,0.02530453241731881,-0.3151768529531819,0.11652624603548398,0.9415120105375965,-0.1337794871653653,-0.0748309916792568,0.0074830991679256,-0.3409772204999999,-0.4067798419999999,10.1898350421
1776813877.4583466,0.02520295914837383,-0.31795671726908753,0.116064380510946,0.9406366973333761,-0.0087048296443217,-0.0572686160810639,-0.003359758810089,-0.1256231865,-0.4163511324,10.1970135099
1776813877.559765,0.02726463823697973,-0.32290541599852823,0.1275919955234257,0.9373948018305702,-0.0636827010821431,-0.1033889415650141,0.2704605842121713,-0.0454636294,-0.3421736318,10.1144611302
1776813877.660766,0.022065455937342333,-0.32508939023720157,0.12252100091360141,0.9374532566184891,-0.0890336084673607,-0.0323758576244948,-0.0740674101315093,-0.5754738353000001,-0.5694917788,10.2867443574
1776813877.7623756,0.027740942411377527,-0.3256762579522768,0.1356497635176759,0.9352884885306403,0.0219911485751285,-0.0226020138133265,0.2700024352835228,-0.0921236701,-0.6819544409999999,10.3788680275
1776813877.8635693,0.03192233682794985,-0.3372228369813405,0.15813107418160643,0.9275000194112507,-0.1496619833585137,-0.239764605992721,0.5508477285450604,-0.2177468566,-0.7226324252,10.2197453246
1776813877.9650426,0.04249510466897061,-0.3352479232413596,0.18057469685442631,0.9236859720150894,0.062766403224846,0.0123700210735098,0.4538728719811253,0.5228317381,-1.7575281996999998,9.6454679006
1776813878.066325,0.058957061493654116,-0.33702445537054443,0.1879200437273655,0.9206653238542909,0.3107776899332403,-0.1033889415650141,0.0537561409614253,0.4043870194,-0.7250252478,9.9326066126
1776813878.1677537,0.04935640397744624,-0.3405170115501317,0.18324673521554313,0.9208869334854455,-0.2044871384867856,-0.0323758576244948,-0.021838432265579,-0.0586241537,-0.1411765334,10.0989077833
1776813878.2693312,0.05586144990004545,-0.3416998871006584,0.18326189547634877,0.9200737814093377,0.1463022245484246,-0.0517708289372818,-0.0490219353653907,-0.0705882667,-1.0492527101,9.9146604431
1776813878.3703291,0.05561463209286632,-0.3417826380380741,0.17721343004162904,0.9212421186885619,0.0491746516749402,-0.002443460952792,-0.1481348202630187,-0.1722832271999999,-0.4331008906,10.1108718963
1776813878.4717734,0.05842173794869132,-0.342015832971253,0.173597202778321,0.9216702673513869,0.0985020196594299,-0.0167987940504454,-0.1125519201379843,-0.23928226,0.1232303638999999,10.2041919777
1776813878.5731456,0.05238131110069989,-0.3454224237196853,0.17074012282831127,0.9212965634884149,-0.1360702318086079,-0.0471893396507966,-0.0065668013106286,-0.2919243572,0.1040877831,10.1838529856
1776813878.6747625,0.047064180581127504,-0.34930495534198613,0.16795764742653194,0.9206308922422195,-0.122478480258702,-0.0601702259625045,-0.0079412480965742,-0.2895315346,-0.3720839143,10.1611211709
1776813878.7769277,0.04171683160484697,-0.35293231273178816,0.16617146092710458,0.9198290787771366,-0.1311833099030238,-0.0543670061996233,0.0172569429790939,-0.2285145583,-0.5479563754,10.0953185494
1776813878.8815334,0.047731296813712354,-0.35551455964790535,0.1729805291248014,0.9172834118888996,0.062460970605747,-0.0716239491787173,0.1247692249019446,-0.1124626622,-0.9343972253,9.9673025403
1776813878.9825895,0.04628354557573382,-0.35791064445322823,0.17311094900987722,0.916400787499069,-0.0508545310799847,-0.0436768645311581,0.0270307867902621,-0.1411765334,-0.2691925425,10.1192467754
1776813879.0852838,0.04790819314722826,-0.36367259441977035,0.1846605376614414,0.9117826138548314,-0.1104138918042912,-0.1172861257340189,0.3025310092175671,-0.8183453291999999,-0.299102825,9.511469835
1776813879.1862774,0.05635130896403984,-0.3666859071978237,0.204712670760484,0.9057917519334441,-0.020311269170084,-0.0879645943005142,0.4558581840052689,-0.1328016543,-0.5407779076,10.2388879054
1776813879.2891371,0.06358405380430897,-0.36899193836228344,0.2222015539612301,0.9002380168281442,-0.0241291769088216,-0.0707076513214202,0.3958406743523139,-0.0897308475,-0.59820565,10.0271231053
1776813879.3917713,0.07486295667059262,-0.36966667676780796,0.24226346443355923,0.8938962465558469,0.0534507083423263,-0.06154467274845,0.4225660285234771,-0.5096712138,-0.9774680321,10.4219388343
1776813879.4927669,0.08584730032416203,-0.3698736353192703,0.2650683670972274,0.8863196351695984,0.0155770635740493,-0.0554360203664698,0.5093088923475952,-0.0263210486,-0.5012963347,9.5928258034
1776813879.5955873,0.09815286453801315,-0.36951031679537366,0.29040189514398934,0.8772085728386061,0.0171042266695444,-0.0563523182237669,0.5609270049753277,-0.3936193176999999,-0.873380249,10.253244841
1776813879.6979735,0.10325276442084355,-0.37293066922052537,0.3020046081635815,0.8712375102359554,-0.0465784744125986,-0.0956004097779894,0.2959642079069384,-0.1244267751999999,-0.5300102059,9.9696953629
1776813879.7995934,0.10543851334910884,-0.37557107191808775,0.3036609623585334,0.8692635444906899,0.003359758810089,-0.0673478925113311,0.0484110701271927,0.1208375412999999,-0.9511469835,9.8775716928
1776813879.9007308,0.11581731230715406,-0.3690584812329238,0.30812030432683335,0.8691628533603668,0.2675589743307307,0.0574213323906134,-0.023365595361074,-0.5084748025,-0.4869393990999999,10.0630154443
1776813880.0030065,0.1400093654037965,-0.36287170120428036,0.31734703789122964,0.8648770800558887,0.5303837430654269,-0.0507018147704352,-0.0077885317870246,0.023928226,-0.0777667345,10.0965149607
1776813880.1040952,0.14346676817962417,-0.3634383059775195,0.31391160215688224,0.8653261756167925,0.1180497072817664,-0.0357356164345838,-0.1230893454969001,-0.2165504453,0.0885344362,10.0965149607
1776813880.2056308,0.14960572331560665,-0.3635305308483056,0.31502768024461686,0.8638409815307783,0.1340849197844643,-0.0464257581030491,-0.0247400421470196,-0.5527420206,-0.8315058535,10.1611211709
1776813880.3070571,0.13309065325677488,-0.37099612863524273,0.3075272853535867,0.866069119248805,-0.3860668305411457,-0.0306959782194502,-0.002748893571891,-0.1722832271999999,0.3074777040999999,10.1611211709
1776813880.4084709,0.1223589809650085,-0.3760319886013131,0.3042013629101639,0.8666543452434458,-0.2730567614745128,-0.0250454747661186,0.0459676091744006,-0.1962114532,-0.0538385085,10.090532904199998
1776813880.5147505,0.12455567017529498,-0.37684646417848416,0.3046216335313273,0.8658396432643076,0.0375682121491779,-0.0306959782194502,-0.002138028333693,0.1172483074,-0.5431707302,10.3573326241
1776813880.6202786,0.12819015062300798,-0.38046346343628734,0.31136494490827976,0.8613168460883482,-0.0328340065531433,-0.0940732466824943,0.1782199332442709,0.0897308475,-0.2213360905,10.3058869382
1776813880.7214172,0.13694181679791878,-0.37871682197544954,0.3314956514240075,0.8531888071534188,-0.0198531202414355,-0.0262672052425146,0.4778493325803975,-0.0167497582,-0.4510470601,10.1623175822
1776813880.8230984,0.15415218511925696,-0.37621952507328277,0.36494738546102096,0.8375615670634351,0.0128281700021583,-0.0833831050140291,0.7889324551327368,-0.0634097989,-0.0813559683999999,10.3597254467
1776813880.9546232,0.18086723747130523,-0.3657602308044859,0.40854635776864506,0.816453531761191,0.1458440756197761,-0.0262672052425146,0.7417431154819402,0.0945164927,-0.9056833541,10.0953185494
1776813881.0577953,0.18768536194299798,-0.36556941541445154,0.4249108638357299,0.8065878533800492,-0.0644462826298906,-0.0610865238198015,0.4343251843587889,-0.5036891573,-0.9044869428,10.1623175822
1776813881.158881,0.18986442378605622,-0.3648322528145024,0.4254294240708279,0.8061381600082257,0.0536034246518758,-0.0079412480965742,-0.0096211275016187,-0.1950150419,-0.9774680321,9.7447700385
1776813881.2606497,0.19785263510088308,-0.36249728630648664,0.4280618662262568,0.803873802836592,0.1795943800302165,-0.0361937653632324,-0.0082466807156732,-0.2476571390999999,-0.3457628657,10.1324072997
1776813881.3617678,0.20250239297818506,-0.3618008550742163,0.429407278970348,0.802310607478772,0.0978911544212319,-0.0342084533390888,-0.00305432619099,-0.2536391956,-0.3385843978999999,10.073783146
1776813881.463209,0.21254215586200684,-0.35903832458512236,0.43282830090248386,0.7991101146891507,0.2229658119422756,-0.0503963821513362,-0.0047342055960346,-0.2117648001,-0.2763710103,10.0606226217
1776813881.5643747,0.21793856823524002,-0.3591222609881696,0.4326961834103109,0.7976891593850761,0.1255328064496921,-0.0566577508428659,-0.0473420559603461,-0.1698904046,0.3888336725,10.1503534692
1776813881.6659396,0.21644901958574322,-0.3617667424053417,0.43144027320200934,0.797580050320451,-0.0557414529855689,-0.0351247511963858,0.001832595714594,-0.2237289131,0.3146561719,10.109675485
1776813881.7676754,0.21420804239462235,-0.3655697391811819,0.42942947029793,0.7975362125998452,-0.0798706298943905,-0.0494800842940392,-0.002138028333693,-0.1938186305999999,-0.0263210486,10.1240324206
1776813881.8687863,0.2125469650963993,-0.3684071888964851,0.4279429094506822,0.797474010265278,-0.060322942272054,-0.0374154958396284,-0.000610865238198,-0.215354034,0.0071784678,10.1228360093
1776813881.9704237,0.212108423560144,-0.3709361828626832,0.4268943188723424,0.7969803042814868,-0.0335975881008908,-0.0439822971502571,-0.0001527163095495,-0.2045863322999999,-0.2261217357,10.0761759686
1776813882.0716386,0.21010112828111868,-0.3749841267150858,0.42494219220037976,0.7966608775976517,-0.0810923603707865,-0.0574213323906134,0.00305432619099,-0.2093719774999999,0.179461695,10.1144611302
1776813882.1729672,0.1953422689792125,-0.3849912061456487,0.4175657524642285,0.7995386241511752,-0.3953825254236654,-0.0429132829834105,0.0164933614313464,-0.1591227029,-0.574277424,10.086943670299998
1776813882.2740188,0.19575595854937902,-0.3893034340750029,0.4168613833955439,0.7977148788529503,-0.0511599636990837,-0.0879645943005142,0.0303905456003512,-0.1148554848,-0.7214360139,10.1383893562
1776813882.3754733,0.19729292703595988,-0.3906540335959216,0.4166768074676455,0.7967718400492018,0.0164933614313464,-0.041844268816564,-0.001527163095495,-0.1136590735,-0.5419743189,10.1168539528
1776813882.4766288,0.19860258754639407,-0.39423161630016534,0.4175791102549674,0.794207864231969,-0.0444404460789056,-0.0826195234662815,0.0665843109635836,-0.3134597605999999,-0.4091726645999999,10.2281202037
1776813882.5780258,0.20344379452712857,-0.3950365904443497,0.4258123777115927,0.7881881334212706,-0.0334448717913413,-0.0635299847725936,0.2396118896831715,-0.1591227029,-0.7322037156,10.1108718963
1776813882.6793373,0.20697541029750016,-0.3982445214175259,0.4275555176652886,0.7847029756583535,-0.003359758810089,-0.0986547359689794,0.0737619775124103,-0.155533469,-0.526420972,10.2544412523
1776813882.7807384,0.21015141512661412,-0.4037068973738673,0.4322891853947184,0.7784492173056752,-0.1082758634705982,-0.1371392459754544,0.2159408617029984,-0.1519442351,-0.3517449222,10.201799155099998
1776813882.8827136,0.23154801296209895,-0.39467978595432307,0.4705808859903827,0.7544315833744367,-0.0067195176201781,-0.0540615735805243,1.0007499764778989,0.1770688724,-0.7453642399,10.0175518149
1776813882.983774,0.25523053870525403,-0.387014012650504,0.5050503601268002,0.7280121289238048,0.040927970959267,-0.1351539339513109,0.9477574170642208,0.3900300838,-0.8123632727,9.9050891527
1776813883.0850096,0.25702718293633015,-0.3905924320828863,0.5086579341700974,0.7229396138248332,-0.1169806931149199,-0.0856738496572716,0.1945605783660679,-0.1100698396,-0.8949156524,9.9290173787
1776813883.1864974,0.25740863424208504,-0.3912822359507758,0.5089472293655377,0.7222269204122266,-0.0142026167881038,-0.0171042266695444,0.022449297503777,-0.0813559683999999,-0.7094719009,10.1144611302
1776813883.2880654,0.26501167082444443,-0.39161460119312863,0.5171509202855618,0.7134155479851693,-0.0151189146454008,-0.100029182754925,0.2744312082604584,0.1627119367999999,-0.7334001269,9.9146604431
1776813883.389187,0.26493239173932137,-0.3838528009485372,0.5210352245342075,0.7148357502292633,0.1096503102565437,0.14156801895239,-0.0105374253589157,-0.0287138712,-1.3531411803,10.0701939121
1776813883.4907172,0.2720891245021396,-0.3809368871405439,0.5229208585119386,0.712326029340827,0.181274259435261,-0.0419969851261135,-0.0280998009571087,-0.2799602442,-0.5838487144,10.1240324206
1776813883.5917954,0.28175467917149016,-0.37468848947258876,0.5244230839740925,0.7107765229780894,0.3226895620781016,-0.0157297798835988,-0.1233947781159991,-0.0729810893,-0.5946164161,10.0008020567
1776813883.6932414,0.3025281259638017,-0.3608101872452774,0.533504631755191,0.7026133714046553,0.5769622174780255,-0.0293215314335047,-0.0360410490536829,-0.2368894373999999,0.6496513358999999,10.1120683076
1776813883.794526,0.30163565407103454,-0.3618391332065406,0.5330232260087895,0.7028332763953778,-0.0325285739340443,-0.0064140850010791,0.0054977871437821,-0.11964113,0.1100698396,9.9792666533
1776813883.8959975,0.3029727424310528,-0.362712577258972,0.5324774978295751,0.702221345408352,0.0207694180987325,-0.0332921554817918,-0.0140499004785543,-0.0933200814,-0.442672181,9.9649097177
1776813883.997081,0.29408259145081417,-0.37099292967969016,0.5266214252164076,0.706080413293198,-0.2605340240914535,-0.0282525172666582,-0.0184786734554899,-0.0526420972,-0.5300102059,10.0965149607
1776813884.0984116,0.2917931877490016,-0.37366742124192287,0.5248541098906196,0.7069353274639856,-0.0746782753697073,-0.0174096592886434,-0.0035124751196385,-0.3062812928,-0.3672982691,10.2233345585
1776813884.2046149,0.28895275622566063,-0.37912686371655036,0.5224606306184677,0.7069681855160098,-0.1333213382367168,-0.0580321976288114,0.0293215314335047,-0.3361915753,-1.0001998468,9.9254281448
1776813884.3056889,0.288609416391589,-0.3817855892403019,0.5214116651179811,0.7064518696255508,-0.0488692190558412,-0.0436768645311581,0.0138971841690048,-0.1507478238,-0.6005984726,10.0929257268
1776813884.4082415,0.2979313324704306,-0.3813719074916413,0.5331741510647912,0.6939147742662063,-0.0487165027462917,-0.1195768703772615,0.4024074756629426,-0.263210486,-0.8506484343,10.325029519
1776813884.5124798,0.3091269853489393,-0.3771288283895389,0.5486493283535248,0.6791157988324499,-0.0122173047639603,-0.080939644061237,0.4740314248416599,-0.6771687957999999,-0.4534398827,9.966106129
1776813884.615954,0.3253156849474648,-0.36814671850010516,0.5728295856298264,0.6561280093182484,-0.0155770635740493,-0.0810923603707865,0.7463246047684252,0.0526420972,-0.6424728680999999,10.04985492
1776813884.718753,0.33766421857070056,-0.36334085121909915,0.5911019922701289,0.6360540354928212,-0.0963639913257369,-0.1061378351369051,0.6586654430870101,-0.1172483074,-0.5228317381,9.6454679006
1776813884.82198,0.3511258315799151,-0.35476566412463423,0.6073227511777017,0.6180704246746221,0.060322942272054,-0.0697913534641232,0.5047274030611102,-0.2069791549,-0.8159525066,9.9349994352
1776813884.9237702,0.3602456320448582,-0.35172180158438204,0.614682783820709,0.6071901960319032,0.04001167310197,-0.0980438707307814,0.2690861374262258,-0.0107677016999999,-0.2739781877,10.013962581
1776813885.0291426,0.3595338075729072,-0.35222148939362763,0.6136636365976652,0.6083522045157648,0.0013744467859455,0.0035124751196385,-0.0346666022677373,0.0610169763,-1.2011969452,10.1276216545
1776813885.130327,0.3688906267855184,-0.34504742951830325,0.6165596853492162,0.6039173215388629,0.30161471136027,-0.0368046306014304,-0.0578794813192619,-0.0514456858999999,-0.8578269021,10.0055877019
1776813885.2315085,0.38569980464391895,-0.32982861403512664,0.6244034803946441,0.5937752434485337,0.5328272040182188,-0.0345138859581878,-0.0219911485751285,-0.1112662509,-0.2380858487,10.013962581
1776813885.332627,0.38922475246533517,-0.32754893230589066,0.6251693738907711,0.591928241396363,0.1081231471610487,-0.0219911485751285,-0.0222965811942275,-0.0705882667,0.0370887503,10.085747259
1776813885.4340923,0.3920013837334434,-0.32799128676920253,0.6245347572001165,0.5905192359301599,0.0523816941754798,-0.0525344104850293,-0.0213802833369305,-0.1363908882,0.0334995164,10.0929257268
1776813885.5355277,0.3920382563935351,-0.33015645920562775,0.6218088962461629,0.5921624899618756,0.0154243472644998,-0.0319177086958463,-0.0820086582280835,0.0035892339,0.215354034,10.0809616138
1776813885.636651,0.3881145291973433,-0.33683549960121406,0.6183736451645107,0.594577996061308,-0.1751656070532809,-0.0413861198879155,0.0067195176201781,-0.3326023413999999,0.6005984726,10.1324072997
1776813885.7380917,0.37851901340143573,-0.3486138502639803,0.6121794280605471,0.6003566338079294,-0.3572034480362894,-0.0308486945289997,0.0178678082172919,-0.1148554848,-0.3529413335,10.1647104048
1776813885.8393562,0.38103218363585345,-0.3488901041576662,0.6146805518336916,0.5960352250093736,-0.0445931623884551,-0.0484110701271927,0.1365283807372564,-0.2895315346,-0.5970092387,9.9026963301
1776813885.9407012,0.3826774730979413,-0.353282575899379,0.612135753787045,0.595011926002194,-0.0419969851261135,-0.0978911544212319,-0.0019853120241435,-0.0263210486,-0.5180460929,10.1288180658
1776813886.0424714,0.3822373508304823,-0.3570737973057029,0.6100112671075351,0.5952135456368918,-0.0705549350118707,-0.0537561409614253,0.0039706240482871,-0.1304088317,-0.6053841178,10.013962581
1776813886.1434925,0.38983518250356264,-0.35379293196430034,0.6161788364555926,0.5858180035461101,0.0368046306014304,-0.0775798852511479,0.2318233578961468,-0.2428714938999999,-0.1674975819999999,10.3573326241
1776813886.2449708,0.3909171058684079,-0.3572278568531487,0.6149848338482217,0.584265118558561,-0.0676533251304302,-0.0737619775124103,0.0468839070316976,0.2237289131,-0.3900300838,10.1659068161
1776813886.346212,0.3977385979826786,-0.35191346212507363,0.6232466261725529,0.5740423031575703,0.0155770635740493,-0.0351247511963858,0.2947424774305424,-0.1292124204,-0.6675975054,9.978070242
1776813886.447716,0.4086358838419447,-0.3426083473342117,0.6340920527446338,0.5599674128194687,0.1223257639491525,-0.0481056375080937,0.3338378526752154,0.215354034,-0.3924229064,10.5690974242
1776813886.5489943,0.4123777128344343,-0.34325322303674166,0.635859389842858,0.5548014808749142,-0.04001167310197,-0.0778853178702469,0.1404990047855435,0.0885344362,-0.753739119,10.133603711
1776813886.6506689,0.4230919755971854,-0.33425854730938814,0.6498715834647906,0.535659713569029,-0.0458148928648511,-0.063071835843945,0.579252962121268,-0.1639083481,-0.6735795618999999,9.8333044747
1776813886.7519257,0.4360578217246098,-0.3218417760697849,0.665852045203238,0.5127499402122832,0.0007635815477475,-0.0650571478680886,0.6519459254668318,-0.0622133875999999,-0.4965106894999999,10.1491570579
1776813886.853387,0.4525838478366617,-0.29905591513488766,0.6868416970024233,0.48371675964248734,0.2031126917008401,-0.0065668013106286,0.7092145415478958,-0.0705882667,-0.3613162126,9.8715896363
1776813886.9548025,0.4634479621401253,-0.2866737521936075,0.6993662367769845,0.4625159597763109,0.0251981910756681,-0.0577267650097124,0.558330827712986,0.0071784678,-0.7274180704000001,10.1802637517
1776813887.0568044,0.47263397980537775,-0.2777691286199711,0.7072929670654089,0.446316133540837,0.042149701435663,-0.0754418569174548,0.3880521425652892,-0.131605243,-0.6520441585,10.2364950828
1776813887.1578734,0.47633712266783174,-0.27525195721363005,0.709984786272821,0.43961450030649957,-0.0172569429790939,-0.0464257581030491,0.1773036353869739,-0.0191425808,-0.8566304908000001,9.870393225
1776813887.2593374,0.4778760845314892,-0.27324882136543627,0.7108839830331948,0.43773678406333777,0.0488692190558412,-0.0064140850010791,0.0163406451217969,-0.0981057266,-0.7429714173,10.0486585087
1776813887.3608737,0.48201758651877463,-0.2684312064224187,0.7122251755011304,0.4339804524256876,0.1585195293123849,-0.023671027980173,-0.0138971841690048,-0.0490528633,-0.6388836341999999,10.0558369765
1776813887.462412,0.484233013029982,-0.26706855362746884,0.712110913999211,0.4325399668451985,0.0700967860832222,-0.0274889357189106,-0.020616701789183,-0.0705882667,-0.2524427843,10.073783146
1776813887.5638375,0.4854502436680158,-0.26634313230793966,0.7122255344735323,0.4314327118322748,0.0279470846475592,-0.0158824961931484,0.0041233403578366,-0.071784678,-0.4271188341,10.1108718963
1776813887.664876,0.488842417450969,-0.2628757765814061,0.7131655595201856,0.428163872485379,0.1140790832334793,-0.0265726378616136,0.0001527163095495,-0.1531406464,-0.502492746,10.1024970172
1776813887.7663655,0.49134574034613177,-0.26084236779810177,0.7134127005945068,0.42612549939618033,0.0823140908471825,-0.0258090563138661,-0.0126754536926088,-0.2536391956,0.3625126239,10.1144611302
1776813887.8675165,0.4900585572682277,-0.2660364482027782,0.7110462210482167,0.42834622702772146,-0.121562182401405,-0.0375682121491779,0.0039706240482871,-0.1268195978,0.1304088317,10.1395857675
1776813887.9688673,0.48733806967492493,-0.2756733757012586,0.706889498917104,0.43221873177329584,-0.2464841236128992,-0.0645989989394401,0.0313068434576482,0.0454636294,-0.3385843978999999,10.097711372
1776813888.0700655,0.4898245324145116,-0.2787234168275728,0.7058944433947261,0.4290666837932282,-0.1076649982324002,-0.0913243531106032,0.119729586686811,-0.1016949604999999,-0.382851616,9.9230353222
1776813888.1717763,0.49875230464428083,-0.2732386905949333,0.7107258220854716,0.4140719290110295,-0.0371100632205294,-0.1235474944255486,0.3853032489933982,0.191425808,-0.6723831506,10.1491570579
1776813888.2730412,0.5018644240436179,-0.26275684210269434,0.718419446456297,0.40368854425288736,0.0729983959646628,0.0551305877473708,0.2605340240914535,-0.1172483074,-0.4893322216999999,10.719845248
1776813888.3744678,0.5071119338138229,-0.26086306959646616,0.7199116246833542,0.39562001737789687,-0.0375682121491779,-0.0920879346583508,0.2072360320586767,-0.2045863322999999,-1.0803594039,10.3202438738
1776813888.47638,0.5094942244286859,-0.2567062339186447,0.7224193949992895,0.3906760326280312,0.0442877297693561,-0.0044287729769356,0.1014036295408705,0.2656033086,-0.0071784678,10.1371929449
1776813888.577466,0.51069779631392,-0.2586983893338974,0.7210497847042323,0.3903205249203955,-0.0354301838154848,-0.0487165027462917,0.0137444678594553,0.0023928226,-0.6245266986,10.0845508477
1776813888.678745,0.5117360227488338,-0.2606785138456769,0.7196478006140202,0.39023069908942015,-0.0316122760767473,-0.0448985950075541,0.0054977871437821,-0.0669990328,-0.4941178669,10.1192467754
1776813888.7798162,0.5154463067916712,-0.261532849175193,0.7189241503248374,0.386087735750364,-0.0481056375080937,-0.0908662041819547,0.1091921613278952,-0.023928226,-0.1363908882,9.9684989516
1776813888.8813128,0.5173498827091209,-0.2620502614036883,0.7186306691703029,0.38373001014640457,-0.0378736447682769,-0.0476474885794451,0.0714712328691677,0.287138712,-0.7561319416,9.906285564
1776813888.982327,0.5166962484600363,-0.264651315479733,0.7160543985550103,0.38762193739801865,0.0372627795300789,-0.0137444678594553,-0.1401935721664445,0.131605243,-1.4261222696,10.205388389
1776813889.083851,0.5183572904158358,-0.2668666726851355,0.7140586280443705,0.38756699317422416,-0.0151189146454008,-0.0607810912007025,-0.0140499004785543,0.1052841944,-0.8781658942,10.097711372
1776813889.1848843,0.5213694538294327,-0.2684740613219975,0.7121197260374116,0.3859806559910396,-0.001832595714594,-0.0835358213235785,0.0087048296443217,0.1256231865,-0.6017948839,10.1563355257
1776813889.2865016,0.5231298776171569,-0.2710552796560921,0.7102687416023727,0.3852044667671942,-0.0548251551282718,-0.0681114740590787,0.0317649923862968,0.1686939932999999,-0.9320044027,9.9948200002
1776813889.3876634,0.5280822754194838,-0.27924265974026496,0.7039021612924918,0.38428426287934553,-0.1408044374046425,-0.2035708406294886,0.0407752546497175,0.2895315346,-0.7214360139,10.1395857675
1776813889.4891915,0.5345084278855461,-0.28792804523900734,0.6968739959431514,0.38179158589784373,-0.181885124673459,-0.2428189321837111,0.101250913231321,0.3637090352,-0.9427721044,10.0761759686
1776813889.5902438,0.5343146632505288,-0.28093187453624274,0.7015188906358412,0.37875634461495905,0.1287398489502317,0.0872010127527666,0.0258090563138661,0.6652046827999999,-1.4644074312,9.8380901199
1776813889.691921,0.535909057072688,-0.27221783907047187,0.7063188672972923,0.3739152154421307,0.1905899543177807,0.0664315946540341,0.0197004039318859,0.1627119367999999,-0.7908278692999999,10.2077812116
1776813889.793285,0.5363093554258864,-0.26641157691955436,0.7098191270616239,0.37088266854003954,0.1065959840655536,0.0575740487001629,0.0293215314335047,0.1639083481,-0.5934200048,10.0929257268
1776813889.89445,0.5357235159346199,-0.2639839654369193,0.7115014286603558,0.370241134237028,0.0401643894115195,0.0404698220306185,0.0054977871437821,0.0502492746,-0.6652046827999999,10.0163554036
1776813889.9959562,0.5371590596320325,-0.2630150886252569,0.7115409223236705,0.36877191279903493,0.0342084533390888,-0.0204639854796335,0.0058032197628811,-0.0418743954999999,-0.6927221427000001,10.0654082669
1776813890.0973997,0.5388546675775813,-0.2638231678487894,0.7103913512051263,0.3679362872414713,0.0053450708342326,-0.0462730417934996,-0.001527163095495,-0.0729810893,-0.6556333924,10.085747259
1776813890.198949,0.5406734468617003,-0.2640492052042507,0.709548050663896,0.3667312434041543,0.0171042266695444,-0.042455134054762,0.0013744467859455,-0.0406779841999999,-0.6281159325,10.086943670299998
1776813890.3000305,0.5426863858815179,-0.26410277356785716,0.7087167718916872,0.3653241694879325,0.0239764605992721,-0.0450513113171036,0.000610865238198,-0.1004985492,-0.4929214555999999,10.144371412699998
1776813890.401472,0.5440119101622084,-0.2646612548449976,0.7078733697823836,0.36458298662783134,0.003665191429188,-0.0355829001250343,0.0016798794050445,-0.0729810893,-0.5479563754,10.1108718963
1776813890.5084984,0.545820091747683,-0.264971883213346,0.7069853055985994,0.3633759846475535,0.0134390352403563,-0.041233403578366,0.002748893571891,-0.0346959277,-0.5694917788,10.0941221381
1776813890.610023,0.5471837423182688,-0.2655295578497727,0.7061173321162294,0.36260490804143475,0.0044287729769356,-0.0364991979823314,0.0013744467859455,-0.1878365741,-0.5694917788,10.085747259
1776813890.711279,0.5478953682834304,-0.2677719566137953,0.7044410599311925,0.3631413467891005,-0.0319177086958463,-0.041233403578366,-0.0091629785729702,-0.035892339,-0.4749752861,10.121639598
1776813890.812621,0.547733959991348,-0.2713737888861988,0.702203530334256,0.3650396934086112,-0.0626136869152965,-0.0374154958396284,-0.0216857159560295,-0.1351944769,-0.7465606512,10.0522477426
1776813890.9139984,0.5491619174866105,-0.27167862479838056,0.7013397324473519,0.36432745285082013,0.0219911485751285,-0.0349720348868363,-0.0132863189308068,-0.11964113,-0.2703889538,10.013962581
1776813891.0150387,0.5510072165424832,-0.27338304030626726,0.6995144101903156,0.3637751373130133,-0.0082466807156732,-0.0607810912007025,-0.0061086523819801,0.0502492746,-0.4199403663,10.1898350421
1776813891.116149,0.5519263578881722,-0.2750198667640816,0.6980884585165231,0.36388716992962067,-0.0174096592886434,-0.0394008078637719,-0.0077885317870246,-0.0107677016999999,-0.6951149653,10.0678010895
1776813891.2171955,0.55380244480176,-0.2757858390792867,0.6968411334642242,0.36284632808838313,0.0083993970252227,-0.0508545310799847,-0.000916297857297,-0.0777667345,-0.71784678,10.0749795573
1776813891.3183925,0.5563729611468138,-0.2737381517309956,0.6970811347738296,0.35999228315903475,0.0710130839405192,-0.0339030207199898,0.0083993970252227,-0.0179461695,-0.6400800455,10.086943670299998
1776813891.419722,0.5582716780269773,-0.2728101366993152,0.6968771078341587,0.35814753859791115,0.0419969851261135,-0.0319177086958463,0.0035124751196385,-0.1627119367999999,-0.5252245607,10.1144611302
1776813891.521082,0.5600696316671927,-0.27174569812685534,0.6968111656785464,0.3562730450362875,0.041538836197465,-0.0282525172666582,0.0062613686915296,-0.0681954441,-0.5491527867,10.1024970172
1776813891.622263,0.5620741599273457,-0.2711586312975505,0.6963784440305327,0.3544047094839764,0.0323758576244948,-0.0386372263160244,0.0083993970252227,-0.0777667345,-0.490528633,10.1144611302
1776813891.723457,0.5638410074280962,-0.270754132416898,0.6959105867953981,0.35282286392427453,0.0277943683380097,-0.0354301838154848,0.0053450708342326,-0.0981057266,-0.5431707302,10.0761759686
1776813891.824492,0.5665018948225015,-0.26945391092661664,0.6956501932837552,0.3500585688611842,0.0525344104850293,-0.0458148928648511,0.0137444678594553,-0.0693918554,-0.5204389155,10.086943670299998
1776813891.9256246,0.5697988500061933,-0.2666601893994796,0.696170782176628,0.3457858527537458,0.0707076513214202,-0.0441350134598066,0.042149701435663,-0.1232303638999999,-0.3230310509999999,10.0989077833
1776813892.026868,0.5706842300039956,-0.26816956582071155,0.6948393751294495,0.3458364300677331,-0.0152716309549503,-0.0372627795300789,-0.0071776665488266,-0.0502492746,-0.2584248408,10.1204431867
1776813892.1280117,0.5712384013525376,-0.2704492032983901,0.6930881105151843,0.34665947025568905,-0.0241291769088216,-0.0383317936969254,-0.022449297503777,-0.1351944769,-0.4618147618,10.0809616138
1776813892.229698,0.572540230177327,-0.27170198523170985,0.6917112935723341,0.34628196949036966,-0.00305432619099,-0.0438295808407076,-0.0083993970252227,-0.1244267751999999,-0.3326023413999999,10.1024970172
1776813892.3307226,0.5726198283440047,-0.27434481964103824,0.6899742264156873,0.3475298821763139,-0.0453567439362026,-0.0320704250053958,-0.0140499004785543,-0.059820565,-0.4570291166,10.0953185494
1776813892.4323602,0.574357213406359,-0.2749976308287314,0.6888057853288521,0.34646310704629146,0.0100792764302672,-0.0471893396507966,-0.0013744467859455,-0.0753739119,-0.4809573425999999,10.0881400816
1776813892.533399,0.5759750441591347,-0.2755383258797491,0.6877578800363324,0.34542796343839555,0.0105374253589157,-0.0435241482216085,-0.0007635815477475,-0.0658026215,-0.4211367776,10.1108718963
1776813892.6348257,0.5776627011672973,-0.2763066735141566,0.6865207505063206,0.3444556357150818,0.0083993970252227,-0.0476474885794451,-0.00305432619099,-0.0574277424,-0.4283152454,10.1252288319
1776813892.73656,0.5788030873101104,-0.27725334843307337,0.6854220482786795,0.3439682872539168,-0.0048869219055841,-0.0371100632205294,-0.000610865238198,-0.0370887503,-0.3900300838,10.118050364099998
1776813892.8376036,0.5799705326091357,-0.27705531270628636,0.685075490939006,0.3428499769884448,0.0126754536926088,-0.0248927584565691,0.0090102622634207,-0.0777667345,-0.5096712138,10.0570333878
1776813892.9387434,0.5839053278365733,-0.27310744581197594,0.6859371065793571,0.3375754389520392,0.1143845158525783,-0.0464257581030491,0.0314595597671977,-0.2237289131,-0.1567298802999999,9.9912307663
1776813893.0397704,0.584573429753821,-0.276607626805183,0.6834334660725234,0.3386455720530777,-0.0650571478680886,-0.0558941692951184,-0.0039706240482871,-0.0538385085,-0.2703889538,10.1168539528
1776813893.1412332,0.5846754302407493,-0.27745841992246645,0.6828133658538718,0.3390241494322044,-0.0106901416684652,-0.0120645884544108,-0.0079412480965742,-0.0981057266,-0.7142575461,10.0211410488
1776813893.2423637,0.5906329463857716,-0.2738620928822404,0.6823249589001833,0.3325431207944084,0.1695151035999492,-0.0980438707307814,-0.0088575459538712,-0.0909272588,-0.6747759731999999,10.1312108884
1776813893.3433342,0.601497147924733,-0.25905194885152216,0.686655313090769,0.3155911117868469,0.4137084825696059,-0.0933096651347468,0.0807869277516875,0.6484549246,0.0646062102,10.2867443574
1776813893.444532,0.5995445098849386,-0.2674798122327557,0.6823351239247198,0.3215893489738048,-0.18157969205436,-0.0464257581030491,-0.0387899426255739,-0.0287138712,0.0406779841999999,10.1324072997
1776813893.5456295,0.6019708772230536,-0.2660229457231424,0.6821678066599257,0.31860624425907824,0.0494800842940392,-0.042149701435663,0.020311269170084,-0.035892339,-0.0622133875999999,10.1156575415
1776813893.6467884,0.6029372587662086,-0.2674870475114371,0.6807947309620184,0.3184899930915524,-0.0138971841690048,-0.0395535241733214,-0.0056505034533316,-0.1112662509,-0.1399801221,10.1060862511
1776813893.7479863,0.6039460314923577,-0.268839658621797,0.6794672128588073,0.3182746230013191,-0.0116064395257622,-0.0394008078637719,-0.0047342055960346,-0.1028913717999999,-0.1627119367999999,10.0989077833
1776813893.8490338,0.6050722058620777,-0.2700234877038595,0.6781843179498254,0.31786942707403193,-0.0065668013106286,-0.0404698220306185,-0.0042760566673861,-0.1004985492,-0.1686939932999999,10.1001041946
1776813893.9501393,0.606366018810447,-0.2709772553615452,0.6769654620344491,0.3171897563307764,-0.0004581489286485,-0.0419969851261135,-0.0025961772623415,-0.0873380249,-0.1806581063,10.1048898398
1776813894.0541153,0.6078637995889705,-0.2716593409564626,0.6758217800864935,0.3161767309292118,0.0064140850010791,-0.042760566673861,-0.000305432619099,-0.0837487909999999,-0.1710868159,10.0917293155
1776813894.1552262,0.6094579719932949,-0.27208430916700993,0.67479523371133,0.3149325350601342,0.0119118721448612,-0.0435241482216085,0.001832595714594,-0.0969093152999999,-0.1447657673,10.0953185494
1776813894.257319,0.614325447844392,-0.2672001650701197,0.6750760115403347,0.30899950576025487,0.3006984135029731,-0.060933807510252,-0.1345430687131129,0.7094719009,0.1830509289,10.1754781065
1776813894.3583188,0.6084083383691654,-0.2753549351583178,0.6722922611646575,0.3194402433397236,-0.1302670120457267,0.0543670061996233,-0.1576032314550879,-0.442672181,-0.2931207685,10.0582297991
1776813894.4595876,0.6125994069254349,-0.2742020610608132,0.6709900618000304,0.31513097802373985,0.1154535300194249,-0.0882700269196132,-0.0291688151239552,-0.11964113,-0.3661018578,10.1862458082
1776813894.561599,0.6089011563868281,-0.2836757133232213,0.6659839148790171,0.32439620303536715,-0.0623082542961975,-0.0164933614313464,-0.2244929750377706,-0.3756731482,0.4007977855,10.2185489133
1776813894.663813,0.6100145313152001,-0.28929503551780483,0.661683154868152,0.3261380943293467,-0.0574213323906134,-0.0922406509679003,-0.0536034246518758,0.4701896409,0.4654039956999999,10.4015998422
1776813894.7648566,0.6124808107771728,-0.2893896224471644,0.6605014432336578,0.3238190024317288,0.0435241482216085,-0.061239240129351,-0.0076358154774751,-0.1603191142,0.1220339526,9.7686982645
1776813894.8658743,0.6126694031933361,-0.289415982584828,0.6604784993699981,0.3234853061348154,-0.0261144889329651,-0.0053450708342326,0.0310014108385492,-0.0574277424,0.0299102825,9.9003035075
1776813894.9670126,0.6164425268805995,-0.290869486084551,0.6578071504408598,0.3204423597885375,0.0285579498857572,-0.1099557428756427,-0.001832595714594,-0.3349951639999999,0.3290131074999999,10.1826565743
1776813895.0684395,0.6163915509165298,-0.29285222152390433,0.6562398264779277,0.32194459531330605,0.0713185165596182,-0.0210748507178315,-0.1249219412114941,-0.2560320182,0.1663011706999999,10.1168539528
1776813895.169628,0.6170163662292221,-0.29469913666797876,0.6543986202000224,0.3228090279604047,0.1188132888295139,-0.0358883327441334,-0.160352125026979,0.0514456858999999,1.064806057,10.2221381472
1776813895.2713048,0.6113084778981078,-0.30709891094356484,0.6477986363026809,0.33518521827724146,-0.0820086582280835,-0.0100792764302672,-0.3029891581462156,0.2739781877,0.9750752095,10.085747259
1776813895.372363,0.6123106353629558,-0.30867220048341726,0.6463000102546089,0.3348036069325282,-0.0145080494072028,-0.0444404460789056,-0.0035124751196385,-0.191425808,0.3553341561,10.109675485
1776813895.4734557,0.6144781482162733,-0.31268288432688607,0.6426530606091629,0.33413030826818807,-0.0728456796551133,-0.1044579557318606,0.021838432265579,-0.0466600407,-0.2368894373999999,9.9529456047
1776813895.5748432,0.6118391706318088,-0.31956685480782526,0.6387552185627852,0.3398847236161448,-0.139124557999598,-0.0235183116706235,-0.0594066444147569,-0.263210486,0.4235296002,10.2257273811
1776813895.675954,0.6194309659536912,-0.32980364469826945,0.6283268990510608,0.3357679887813798,-0.6007859617677481,-0.3219259805303541,0.5065599987757042,0.5120640364,-0.6951149653,9.9026963301
1776813895.7771664,0.6390510478054179,-0.29968958983471783,0.6412526071073806,0.30099003624951354,-0.0566577508428659,-0.1139263669239298,1.07115219518022,-0.394815729,-0.6759723845,9.7256274577
1776813895.8782692,0.6576124057447289,-0.26705111466335874,0.6528704830748331,0.264555775399672,0.041233403578366,-0.1107193244233902,1.013272713860958,-0.2919243572,-0.4342973019,9.9708917742
1776813895.9794934,0.6683924971872427,-0.23945973760419942,0.6631586889496954,0.23691993803994363,0.0907134878724052,-0.0064140850010791,0.7351763141713115,0.2069791549,-1.543370577,9.9338030239
1776813896.0806026,0.6695899156652084,-0.24318531295503382,0.6599855963947785,0.23859853510415752,-0.1020144947790685,-0.0675006088208807,0.02153299964648,-0.4187439549999999,-0.7274180704000001,9.1118684608
1776813896.181744,0.6705620651339403,-0.24071966886343843,0.660825942629717,0.23602887826096153,0.0713185165596182,-0.0022907446432425,0.0035124751196385,-0.2009970984,-0.6604190376,10.1659068161
1776813896.283069,0.675361561980399,-0.2340416102053082,0.6614671868834875,0.2270956758028379,0.259465009924607,-0.0659734457253856,-0.0287106661953067,-0.0071784678,-0.8123632727,9.9864451211
1776813896.384076,0.6810667311315106,-0.22564856660638705,0.6622792305139679,0.21590982600184752,0.2895501229058592,-0.0788016157275439,-0.000610865238198,0.0107677016999999,0.2440679052,10.133603711
1776813896.4852967,0.6849107978261902,-0.22032030077184261,0.6624570304300236,0.20858294974117872,0.1267545369260881,-0.0583376302479104,0.0587957791765589,0.6329015777,-0.4331008906,10.0606226217
1776813896.5863688,0.681734321177916,-0.23655912816717228,0.6551772194847562,0.22365353848552677,-0.5210680481829071,-0.0586430628670094,0.0591012117956579,0.1926222193,-0.6520441585,9.8356972973
1776813896.68743,0.6836699360522573,-0.24077208507905723,0.6511457197070127,0.22501882875044513,-0.0545197225091728,-0.0925460835869993,-0.0288633825048562,-0.3373879865999999,-0.7046862557000001,9.8033941922
1776813896.788818,0.6892459528696467,-0.22815630050428534,0.6542710233297946,0.211693521450219,0.081245076680336,-0.0351247511963858,0.3005456971934235,-0.0993021378999999,-1.0660024683,10.5930256502
1776813896.8899224,0.6895653675692004,-0.22984747256668991,0.6529493660974746,0.21290107683326584,-0.0855211333477221,-0.023671027980173,0.0426078503643115,-0.3505485109,-0.9499505722,10.2843515348
1776813896.991541,0.6959809651527704,-0.21940120119835455,0.653709659862163,0.20034293014886284,0.0704022187023212,-0.0838412539426776,0.2651155133779386,-0.131605243,-1.1162517428999998,10.3034941156
1776813897.0926263,0.6982801218503477,-0.2099075840887646,0.6569177630960626,0.19184037661437991,0.0155770635740493,0.0172569429790939,0.2478585703988447,-0.3804587934,-0.3888336725,10.073783146
1776813897.1944246,0.7021099215373529,-0.20820813019085907,0.6546289704485891,0.18748851605007422,0.0398589567924205,-0.0926987998965488,0.0468839070316976,-0.0107677016999999,-0.6927221427000001,10.5308122626
1776813897.2954447,0.7032873196810053,-0.2105199481277615,0.6523568389349503,0.18841139060840034,-0.0429132829834105,-0.0520762615563808,-0.0048869219055841,0.2656033086,-0.2596212521,9.6586284249
1776813897.3982718,0.7052966232552242,-0.20836250597990968,0.6517990293984055,0.1852019562581524,0.0287106661953067,-0.0381790773873759,0.0478002048889947,-0.0526420972,-0.2751745989999999,9.9038927414
1776813897.4996984,0.7061493848579738,-0.20838994750399176,0.6510768307319196,0.1844603928437435,0.0181732408363909,-0.0244346095279206,-0.0080939644061237,-0.1387837108,-0.9248259349,10.3238331077
1776813897.6012788,0.7062793573092133,-0.20963708812764925,0.6503638373352018,0.1850638803410219,0.0274889357189106,-0.0143553330976533,-0.0545197225091728,0.2249253244,-0.1112662509,9.6765745944
1776813897.70259,0.7073265370387352,-0.20931560032048885,0.6496643108030256,0.18388157257347426,0.0241291769088216,-0.0271835030998116,-0.0025961772623415,-0.1854437515,-0.6364908116,10.2125668568
1776813897.8041444,0.7091783556488191,-0.20893341475110488,0.6482738243996338,0.1820822250466875,0.0137444678594553,-0.0493273679844897,0.0172569429790939,-0.215354034,-0.9248259349,10.4913306897
1776813897.9051452,0.7097987426063629,-0.21164915631285122,0.6462239969295512,0.18380676108043395,-0.0569631834619649,-0.0398589567924205,-0.0083993970252227,0.059820565,-0.8123632727,9.882357338
1776813898.006675,0.7103405071902622,-0.21378251737310283,0.6445619602921833,0.1850764124749504,-0.0377209284587274,-0.0329867228626928,-0.0122173047639603,-0.1220339526,-0.3804587934,9.7447700385
1776813898.1080282,0.7119481453686128,-0.216761509582119,0.6415647636310488,0.18584655051119536,-0.0044287729769356,-0.0713185165596182,-0.0513126800086332,0.1172483074,-0.2584248408,9.5270231819
1776813898.209267,0.7133644754235567,-0.21535755072006962,0.6410908467281919,0.18367029371364407,0.0192422550032374,-0.0285579498857572,0.0325285739340443,0.0,-0.3684946804,10.0797652025
1776813898.3110948,0.7145731032116802,-0.21776184675233962,0.6388095014842613,0.1840855211005733,0.0288633825048562,-0.0555887366760194,-0.0707076513214202,0.1734796385,-0.466600407,10.3477613337
1776813898.4122014,0.7144275868426834,-0.22009918481955495,0.637645930365791,0.18589577587415035,-0.022449297503777,-0.0160352125026979,-0.0384845100064749,-0.7561319416,-1.5888342063999998,10.6337036344
1776813898.518895,0.7165387363378328,-0.21856580307643142,0.636671323587591,0.1828957483763947,0.04001167310197,-0.0453567439362026,0.0219911485751285,-0.1399801221,-0.0741775006,9.5916293921
1776813898.6204803,0.7183843252981419,-0.22197342025957953,0.632947958843104,0.18446854273980126,-0.0998764664453755,-0.0813977929898855,0.0258090563138661,0.0885344362,-0.6496513358999999,9.9242317335
1776813898.7216196,0.7196719495826589,-0.21933654783754725,0.6332627923114066,0.1814993103032705,0.0317649923862968,-0.0143553330976533,0.0499382332226877,-0.0287138712,-0.885344362,10.4985091575
1776813898.8232057,0.7198825001537982,-0.22507471209510113,0.6298496069839704,0.18547245760425457,-0.0549778714378213,-0.0561996019142174,-0.0876591616814152,0.0885344362,-1.0815558152,9.9170532657
1776813898.9243023,0.7224165692136033,-0.22309261031699573,0.6285550869206487,0.18238007142714935,-0.0142026167881038,-0.0554360203664698,0.0873537290623162,-0.0251246373,-0.7106683122,10.2496556071
1776813899.0260618,0.7238160332105128,-0.22338549428526217,0.627140674243531,0.18133903528941692,0.0146607657167523,-0.043371431912059,-0.0047342055960346,0.1160518961,-0.4917250442999999,9.8560362894
1776813899.1280253,0.726449113770313,-0.2203865306165423,0.626310671369117,0.17730314479528178,0.0117591558353117,-0.0499382332226877,0.0891863247769102,-0.2667997199,-0.5240281494,10.1671032274
1776813899.229071,0.7275484177492946,-0.22079339096645847,0.625103728704294,0.17654717980194137,0.0160352125026979,-0.0361937653632324,-0.0117591558353117,-0.071784678,-0.7262216591,10.0319087505
1776813899.330345,0.7289372700115767,-0.22171242873244115,0.6232859300593709,0.17609288663559616,-0.0048869219055841,-0.0488692190558412,-0.00305432619099,-0.1064806057,-0.6460621019999999,10.1491570579
1776813899.431862,0.7302693745764234,-0.22218263032017094,0.6217753118005487,0.17531965370459757,0.0029016098814405,-0.043371431912059,0.0004581489286485,-0.0526420972,-0.6759723845,10.0570333878
1776813899.533172,0.7313507920926734,-0.2221386724801382,0.6208014249206775,0.17431586247567254,0.0126754536926088,-0.0317649923862968,0.001832595714594,-0.0681954441,-0.6077769404,10.0953185494
1776813899.6343274,0.7326515812591698,-0.22240063782546884,0.619441116002831,0.17335605146181032,0.0097738438111682,-0.0410806872688165,-0.000610865238198,-0.1016949604999999,-0.610169763,10.0845508477
1776813899.7356305,0.7338794847092246,-0.22242844027899403,0.6182826513348545,0.17225868319570958,0.0138971841690048,-0.0369573469109799,0.0007635815477475,-0.1004985492,-0.5659025448999999,10.1001041946
1776813899.8368216,0.7354299926256458,-0.222090228035939,0.6170535942100284,0.17048025818279638,0.0313068434576482,-0.0438295808407076,-0.001527163095495,-0.0897308475,-0.5670989562,10.1132647189
1776813899.9379756,0.7366137985034615,-0.22187665361338532,0.6160727504492003,0.16918991869962186,0.0197004039318859,-0.0339030207199898,0.0013744467859455,-0.1363908882,-0.5682953675,10.085747259
1776813900.0395055,0.737766220000654,-0.22238609510329052,0.6146739107291387,0.16858651428748256,0.0,-0.0389426589351234,0.000305432619099,-0.1100698396,-0.5826523031,10.0881400816
1776813900.1406736,0.738959876969189,-0.22187846519370194,0.6138514520675298,0.16701689048582305,0.0267253541711631,-0.0319177086958463,0.002748893571891,-0.131605243,-0.5838487144,10.1240324206
1776813900.2417183,0.7450305681434694,-0.20689183699863264,0.6168472853810061,0.14705321089059642,0.4864014459151697,-0.0682641903686282,0.0213802833369305,1.2382856955,-0.4366901245,9.0580299523
1776813900.3431094,0.7465512401231819,-0.20807955734636424,0.6149738237913002,0.14550374475107913,0.0725402470360143,-0.0594066444147569,-0.0688750556068262,-0.3864408499,0.6879364975,9.8715896363
1776813900.4443996,0.7470156029099998,-0.2119693847499053,0.6122966551915104,0.14875978952339503,-0.1039998068032121,-0.0436768645311581,-0.000916297857297,-0.1507478238,-0.3194418170999999,10.1240324206
1776813900.545761,0.7486419677395495,-0.2110749909080839,0.6112270537335076,0.14623283193750805,0.0458148928648511,-0.0439822971502571,0.0025961772623415,-0.0346959277,-0.0047856452,10.1156575415
1776813900.646996,0.7497134763415327,-0.21174751496755181,0.6097980835565638,0.1457360305061947,-0.002443460952792,-0.0387899426255739,-0.001221730476396,-0.1040877831,-0.2057827435999999,10.0917293155
1776813900.7485824,0.7506557523378844,-0.21321650886896992,0.6080315190451628,0.14612437741665416,-0.0251981910756681,-0.0407752546497175,-0.0029016098814405,-0.1016949604999999,-0.1842473402,10.0917293155
1776813900.8495858,0.7517275504628953,-0.21411662803192766,0.6064516877487657,0.14586332610346497,-0.0100792764302672,-0.0407752546497175,-0.0004581489286485,-0.0837487909999999,-0.1627119367999999,10.0941221381
1776813900.9509606,0.7528143811520455,-0.21492208639710025,0.6049043369103848,0.14549827317321612,-0.0074830991679256,-0.0404698220306185,-0.0001527163095495,-0.1028913717999999,-0.1986042757999999,10.1048898398
1776813901.052323,0.7538610595118836,-0.21589565561230922,0.6032922976007142,0.14533056283866264,-0.0122173047639603,-0.040622538340168,-0.0007635815477475,-0.0921236701,-0.2141576227,10.0953185494
1776813901.153331,0.7549004247513909,-0.2168988206716443,0.6016668738485504,0.14517996836592817,-0.0119118721448612,-0.040927970959267,-0.001832595714594,-0.0969093152999999,-0.2261217357,10.0881400816
1776813901.255306,0.7559653796748781,-0.2177379888300406,0.6001035216435334,0.14485260185545706,-0.0076358154774751,-0.0401643894115195,-0.0010690141668465,-0.1100698396,-0.2380858487,10.0797652025
1776813901.356353,0.7570626527557999,-0.21852113362871467,0.5985338789547754,0.14443631712046362,-0.0058032197628811,-0.041233403578366,-0.000916297857297,-0.0921236701,-0.2297109696,10.0953185494
1776813901.457847,0.7581638632024498,-0.21922736084000732,0.5969941183519455,0.1439616040694388,-0.0050396382151336,-0.040622538340168,0.000305432619099,-0.0849452023,-0.2380858487,10.086943670299998
1776813901.5591269,0.7592836576639929,-0.2198906495716268,0.5954549765891675,0.14342175668478896,-0.0035124751196385,-0.0410806872688165,0.000305432619099,-0.0873380249,-0.2356930260999999,10.0833544364
1776813901.6609118,0.7604193331356138,-0.22057194832554952,0.5938864337041383,0.14286132180418817,-0.0025961772623415,-0.0416915525070145,-0.000610865238198,-0.1064806057,-0.2524427843,10.0893364929
1776813901.76204,0.7615519206623134,-0.22123591241040325,0.5923247589290156,0.14228395255671478,-0.002138028333693,-0.041844268816564,-0.000610865238198,-0.1016949604999999,-0.2440679052,10.086943670299998
1776813901.8649082,0.7626925410153009,-0.22190245530842723,0.5907471885797014,0.14169385093536627,-0.001832595714594,-0.041538836197465,-0.0007635815477475,-0.095712904,-0.2440679052,10.0917293155
1776813901.9659245,0.7638288820607444,-0.22254037102239604,0.589179863989937,0.1410968109627115,-0.0022907446432425,-0.0419969851261135,0.0001527163095495,-0.1016949604999999,-0.2464607277999999,10.0917293155
1776813902.067978,0.7649480239276036,-0.2232048094060742,0.5876108584673204,0.1405261995449642,-0.0022907446432425,-0.0413861198879155,-0.000610865238198,-0.1088734283,-0.2452643165,10.0917293155
1776813902.168986,0.7660533662934622,-0.22387681624829564,0.586044424647684,0.13997622468243104,-0.002748893571891,-0.041538836197465,-0.000610865238198,-0.1004985492,-0.2500499617,10.0797652025
1776813902.2706656,0.7672774548135821,-0.22417238720817168,0.5845825184215672,0.13890762147585412,0.0097738438111682,-0.0423024177452125,-0.0001527163095495,-0.1064806057,-0.2524427843,10.0809616138
1776813902.3723094,0.7685260217848819,-0.22450010716842134,0.5830688240759877,0.1378339657396368,0.0094684111920692,-0.0435241482216085,-0.000305432619099,-0.0933200814,-0.2380858487,10.0965149607
1776813902.473445,0.7697689527880825,-0.22480879943262833,0.5815635054520151,0.13675032777863075,0.0094684111920692,-0.0435241482216085,0.0001527163095495,-0.0933200814,-0.2404786712999999,10.0917293155
1776813902.5801482,0.7710849102180389,-0.22509554480855365,0.5799866580462391,0.13555638468819636,0.0105374253589157,-0.0435241482216085,0.000305432619099,-0.1004985492,-0.2309073809,10.1072826624
1776813902.6833017,0.7723353816721711,-0.2252909975346094,0.5785263525411038,0.13434762395609745,0.0119118721448612,-0.0423024177452125,0.000916297857297,-0.0873380249,-0.2309073809,10.1024970172
1776813902.7844002,0.7735807382510301,-0.22547581042336995,0.5770713489387806,0.1331245978581409,0.0125227373830593,-0.04306599929296,0.000916297857297,-0.0849452023,-0.2285145583,10.097711372
1776813902.8859043,0.7748348165192094,-0.22562780990632006,0.5756189474463852,0.13185570085224385,0.0132863189308068,-0.04306599929296,0.001221730476396,-0.0825523797,-0.2201396792,10.0881400816
1776813902.986978,0.7760629980846312,-0.22576594130842714,0.5741981283076435,0.13058511476049842,0.0138971841690048,-0.042455134054762,0.000916297857297,-0.0741775006,-0.2105683888,10.0953185494
1776813903.0883682,0.777322451072913,-0.22582716066111938,0.5727826525363954,0.12919726591188585,0.0161879288122474,-0.0429132829834105,0.0013744467859455,-0.0741775006,-0.2081755662,10.097711372
1776813903.1895072,0.7785979241489456,-0.2258766049277253,0.5713517124636215,0.12775857122778234,0.0174096592886434,-0.0436768645311581,0.0010690141668465,-0.0861416135999999,-0.2057827435999999,10.0941221381
1776813903.291729,0.7799068038211514,-0.22574989487237673,0.5699899951297365,0.12607048731003662,0.0235183116706235,-0.0432187156025095,0.000916297857297,-0.0741775006,-0.1519442351,10.0965149607
1776813903.3960557,0.7812227259497567,-0.2256048209864561,0.5686209033375252,0.12435346997537726,0.0232128790515245,-0.0426078503643115,0.0013744467859455,-0.0753739119,-0.1411765334,10.1024970172
1776813903.497157,0.782483573661008,-0.22549503510080915,0.5672862882884566,0.1227098741564368,0.023060162741975,-0.0426078503643115,0.0007635815477475,-0.0693918554,-0.1232303638999999,10.1120683076
1776813903.598592,0.7837469579533757,-0.22535473631415168,0.5659555500867361,0.12103827512662645,0.023060162741975,-0.042455134054762,0.001527163095495,-0.0646062102,-0.1244267751999999,10.109675485
1776813903.699814,0.7849898608441557,-0.2252275336774878,0.5646324542935042,0.11938872645238856,0.022754730122876,-0.042149701435663,0.0013744467859455,-0.0705882667,-0.1220339526,10.1024970172
1776813903.8012176,0.786228797665155,-0.22509964481167366,0.5633073429839025,0.11772537945608492,0.023060162741975,-0.042149701435663,0.001221730476396,-0.0777667345,-0.1244267751999999,10.0941221381
1776813903.9024663,0.787478676913855,-0.22496782624759518,0.5619633119798808,0.11603467821319255,0.023365595361074,-0.042760566673861,0.0013744467859455,-0.0885344362,-0.1220339526,10.121639598
1776813904.003899,0.7886961030659264,-0.22483021405515774,0.5606508369326113,0.11436988634818238,0.0229074464324255,-0.0416915525070145,0.001527163095495,-0.0861416135999999,-0.11964113,10.1036934285
1776813904.1058664,0.7898983277898092,-0.2247485691348624,0.5593123469726362,0.1127759324973918,0.020922134408282,-0.041538836197465,0.001527163095495,-0.0777667345,-0.1004985492,10.1048898398
1776813904.2076838,0.7911018698676018,-0.22468583305975987,0.55795354643198,0.1111842971745651,0.0207694180987325,-0.0419969851261135,0.0013744467859455,-0.0861416135999999,-0.1256231865,10.109675485
1776813904.3090053,0.792301221797726,-0.22462708272514406,0.55659021540747,0.10958457809786935,0.0210748507178315,-0.0423024177452125,0.001221730476396,-0.0813559683999999,-0.1136590735,10.1001041946
1776813904.4104085,0.7934631865158923,-0.22467845738023612,0.5551980747308146,0.108124281493476,0.0181732408363909,-0.0419969851261135,0.0004581489286485,-0.095712904,-0.1040877831,10.1132647189
1776813904.511575,0.7946153125994031,-0.22474237068720845,0.5538010811979983,0.10668521108557927,0.0175623755981929,-0.0419969851261135,0.000610865238198,-0.0801595571,-0.095712904,10.1001041946
1776813904.6129751,0.7957555700510067,-0.22482438313904002,0.5524022631428822,0.10525592217813527,0.0175623755981929,-0.041844268816564,0.0001527163095495,-0.0729810893,-0.0849452023,10.0893364929
1776813904.714351,0.7968825271365982,-0.22493194725305857,0.5509936555358321,0.1038741960671505,0.0161879288122474,-0.0416915525070145,0.0004581489286485,-0.0646062102,-0.0777667345,10.109675485
1776813904.8156946,0.7979714308480209,-0.22514791864309264,0.5495618324747185,0.10262457097632545,0.0137444678594553,-0.0413861198879155,-0.000610865238198,-0.0705882667,-0.0669990328,10.1120683076
1776813904.9171443,0.799044172283003,-0.22543553370270641,0.5480960555006064,0.10147879004709696,0.0109955742875642,-0.0413861198879155,-0.0004581489286485,-0.0646062102,-0.0550349198,10.0989077833
1776813905.018243,0.8000805148537707,-0.2257130909945009,0.5466685050444935,0.1003908158023018,0.0096211275016187,-0.0401643894115195,0.000305432619099,-0.047856452,-0.059820565,10.0989077833
1776813905.1208646,0.8011344894318698,-0.2260477262500404,0.5451850951313004,0.09929333989044242,0.0099265601207177,-0.040927970959267,-0.000916297857297,-0.0562313311,-0.0646062102,10.1108718963
1776813905.2219348,0.802183200592734,-0.22637631429046995,0.5437007352037069,0.09821093398399507,0.0093156948825197,-0.0413861198879155,-0.000305432619099,-0.0610169763,-0.0646062102,10.1132647189
1776813905.3233526,0.8032138686047722,-0.22670682116302587,0.5422250221531982,0.09717779514927845,0.0077885317870246,-0.040622538340168,0.0004581489286485,-0.0789631458,-0.0693918554,10.1108718963
1776813905.4243903,0.8042473128217053,-0.22708640429220722,0.5407086934247094,0.09618801203708342,0.0065668013106286,-0.0413861198879155,0.000305432619099,-0.0825523797,-0.0765703232,10.1060862511
1776813905.525683,0.8052481309362609,-0.22750221512075852,0.539203559051383,0.09527702579913047,0.0050396382151336,-0.0404698220306185,0.0001527163095495,-0.0813559683999999,-0.0849452023,10.109675485
1776813905.6270838,0.8062424313927528,-0.2279015743106043,0.5377080851642144,0.09436116466896823,0.0050396382151336,-0.0401643894115195,0.0004581489286485,-0.0873380249,-0.0777667345,10.1036934285
1776813905.728411,0.8072271224218583,-0.22835662075531712,0.536187380709725,0.09349181435496143,0.0042760566673861,-0.0404698220306185,-0.000305432619099,-0.0837487909999999,-0.0777667345,10.1060862511
1776813905.8295145,0.8082139765684541,-0.228791493469051,0.5346624365142757,0.0926320655940782,0.003359758810089,-0.0404698220306185,0.0007635815477475,-0.0813559683999999,-0.0741775006,10.1120683076
1776813905.9310749,0.8091638098471038,-0.2293445333380752,0.5331161709921812,0.09188123904419246,0.002138028333693,-0.0401643894115195,-0.0013744467859455,-0.0789631458,-0.0777667345,10.1144611302
1776813906.0323,0.8100344764398639,-0.230186511243232,0.5314731777689796,0.09162193150445652,-0.0096211275016187,-0.0392480915542224,-0.0010690141668465,-0.0681954441,-0.0861416135999999,10.1084790737
1776813906.133865,0.810909737670048,-0.2310948499586335,0.529772959159102,0.09143948500674498,-0.0117591558353117,-0.0398589567924205,-0.0010690141668465,-0.0837487909999999,-0.1339980656,10.1024970172
1776813906.2350547,0.8117596259949034,-0.23206116625222967,0.5280652297328421,0.09132928265058436,-0.0128281700021583,-0.039706240482871,-0.0019853120241435,-0.0885344362,-0.1363908882,10.0953185494
1776813906.336539,0.8126137474772461,-0.23302727105411855,0.5263424008257241,0.09121877794110977,-0.0129808863117078,-0.0398589567924205,-0.001832595714594,-0.095712904,-0.143569356,10.0917293155
1776813906.438241,0.8134793803105835,-0.23403728244056643,0.5245652875307265,0.09115430519262258,-0.0145080494072028,-0.040622538340168,-0.0016798794050445,-0.0885344362,-0.1746760498,10.1013006059
1776813906.5393956,0.8143381324200925,-0.23501987570547905,0.5228036513687007,0.09107912068905454,-0.0143553330976533,-0.0404698220306185,-0.0013744467859455,-0.1028913717999999,-0.1830509289,10.1036934285
1776813906.6408527,0.8151777840082649,-0.23602389974718888,0.5210417912824654,0.09106783704834187,-0.0157297798835988,-0.0398589567924205,-0.001221730476396,-0.0969093152999999,-0.179461695,10.0989077833
1776813906.742035,0.8160128728161534,-0.23703233939712093,0.5192758217936908,0.09105647905966732,-0.0155770635740493,-0.04001167310197,-0.001527163095495,-0.0861416135999999,-0.1854437515,10.1013006059
1776813906.8437696,0.8168520379458419,-0.23802340302955916,0.5175020761688012,0.09104509253624334,-0.0158824961931484,-0.0398589567924205,-0.000916297857297,-0.0885344362,-0.1974078645,10.0917293155
1776813906.9447997,0.8177015088481725,-0.23905900974602884,0.5156778604000354,0.09105699632599193,-0.0166460777408959,-0.0410806872688165,-0.0013744467859455,-0.1004985492,-0.2057827435999999,10.0953185494
1776813907.046412,0.8185390317167336,-0.24008304896551538,0.5138687319357624,0.0910654132719199,-0.0161879288122474,-0.0404698220306185,-0.001527163095495,-0.095712904,-0.1926222193,10.1036934285
1776813907.1476228,0.8193912166427026,-0.2410586961455721,0.512060383003256,0.091010456871433,-0.0151189146454008,-0.040927970959267,-0.0010690141668465,-0.0933200814,-0.1878365741,10.0941221381
1776813907.2490864,0.8202233938951908,-0.2420550145801727,0.510260761197328,0.09097752253150586,-0.0149661983358513,-0.0404698220306185,-0.001832595714594,-0.0933200814,-0.2105683888,10.1001041946
1776813907.351365,0.821058646548425,-0.24307618502501246,0.5084308661449595,0.09096549649642315,-0.0154243472644998,-0.040622538340168,-0.0019853120241435,-0.0885344362,-0.2189432679,10.0953185494
1776813907.4526732,0.8218800357635364,-0.244087512351154,0.5066204790361956,0.0909405484296683,-0.0148134820263018,-0.040622538340168,-0.002443460952792,-0.095712904,-0.2261217357,10.1013006059
1776813907.554247,0.8227137557867221,-0.2450196789258161,0.5048357628333084,0.09082007235687171,-0.0128281700021583,-0.0404698220306185,-0.001832595714594,-0.0933200814,-0.2261217357,10.0917293155
1776813907.6557698,0.8235528133830523,-0.24598348433692413,0.5030111317335838,0.09073417412653834,-0.0138971841690048,-0.0410806872688165,-0.001832595714594,-0.1004985492,-0.2213360905,10.0845508477
1776813907.757283,0.8243877020582221,-0.24691969217422063,0.50120545750664,0.09060172005713904,-0.0125227373830593,-0.040927970959267,-0.002138028333693,-0.0897308475,-0.2297109696,10.090532904199998
1776813907.8586423,0.8252383959487849,-0.24777326965148705,0.49941855026249987,0.09039418317453181,-0.0114537232162127,-0.040927970959267,-0.000916297857297,-0.0897308475,-0.2404786712999999,10.0929257268
1776813907.961435,0.8261122582469835,-0.2486280815182723,0.49759398185789366,0.09012681661646985,-0.0100792764302672,-0.041538836197465,-0.0013744467859455,-0.0933200814,-0.2416750825999999,10.0833544364
1776813908.062988,0.8269572219995892,-0.24943762544426873,0.4958307180871685,0.08985834962099777,-0.0097738438111682,-0.040622538340168,-0.0010690141668465,-0.1016949604999999,-0.23928226,10.0941221381
1776813908.165301,0.8278579872651104,-0.2502296107429679,0.4939943041879206,0.08947581940767818,-0.0079412480965742,-0.0426078503643115,-0.0010690141668465,-0.0897308475,-0.2285145583,10.086943670299998
1776813908.2664287,0.8287467123902832,-0.2509188998250122,0.49223573045326013,0.08900886516548803,-0.0059559360724306,-0.041844268816564,-0.000305432619099,-0.0873380249,-0.2333002035,10.0833544364
1776813908.36794,0.8296276469026178,-0.2515815269466742,0.4905026207290497,0.08849792004301119,-0.0045814892864851,-0.0413861198879155,-0.000610865238198,-0.0849452023,-0.2416750825999999,10.073783146
1776813908.469092,0.83061644385336,-0.2518831645468609,0.4888741313153181,0.08736863481221549,0.0087048296443217,-0.0432187156025095,0.000610865238198,-0.1016949604999999,-0.2428714938999999,10.085747259
1776813908.570458,0.8315915998027479,-0.2522107556330397,0.4872484991682704,0.0862209135812526,0.0097738438111682,-0.0432187156025095,-0.000610865238198,-0.1052841944,-0.2464607277999999,10.0893364929
1776813908.6770406,0.8326418533752901,-0.25244938041048404,0.48556158740995464,0.08489286878206893,0.0116064395257622,-0.043371431912059,0.0007635815477475,-0.0909272588,-0.227318147,10.0881400816
1776813908.7790065,0.8336305582428905,-0.2526140377846184,0.48401063228544805,0.08354608376482435,0.0137444678594553,-0.042455134054762,0.0007635815477475,-0.0837487909999999,-0.2129612114,10.0953185494
1776813908.880322,0.8346349610251723,-0.2527659827027044,0.48243803420196835,0.08214245539418746,0.0148134820263018,-0.0435241482216085,0.0007635815477475,-0.0837487909999999,-0.2105683888,10.0893364929
1776813908.981886,0.8356244247392924,-0.252893198633149,0.4808939786916669,0.08073309186647079,0.0149661983358513,-0.042760566673861,0.0010690141668465,-0.0777667345,-0.2141576227,10.097711372
1776813909.083086,0.8366059333548315,-0.2530090978821732,0.4793627563603282,0.07929852759647628,0.0157297798835988,-0.042760566673861,0.000916297857297,-0.0801595571,-0.2117648001,10.0929257268
1776813909.1842625,0.8376011501229168,-0.253082196180979,0.4778321911487339,0.07778246840374392,0.0172569429790939,-0.0432187156025095,0.001221730476396,-0.0885344362,-0.1950150419,10.0941221381
1776813909.2863188,0.8385873528975296,-0.2531582221971383,0.47630462194060696,0.0762631838590148,0.0172569429790939,-0.042760566673861,0.0010690141668465,-0.0753739119,-0.1974078645,10.090532904199998
1776813909.3875558,0.8395709068002509,-0.2531557158038662,0.47482297975655846,0.07467271192034869,0.0187841060745889,-0.042455134054762,0.0019853120241435,-0.0741775006,-0.1830509289,10.0893364929
1776813909.4887662,0.8405595339704853,-0.25316855718223413,0.4733181351450471,0.07304309993696362,0.0197004039318859,-0.0432187156025095,0.0013744467859455,-0.0741775006,-0.1830509289,10.0833544364
1776813909.5900598,0.8415470181820366,-0.2531541341867144,0.4718258422153462,0.07135807698415957,0.020922134408282,-0.0432187156025095,0.0013744467859455,-0.0873380249,-0.1818545176,10.0929257268
1776813909.6944149,0.8425244447969406,-0.25311594023124645,0.47036383749990085,0.06958980595479461,0.0226020138133265,-0.041844268816564,0.000610865238198,-0.0753739119,-0.1304088317,10.1120683076
1776813909.7968352,0.8434807734796325,-0.2530758029317444,0.46892093736256824,0.06786735035099134,0.0219911485751285,-0.041844268816564,0.0010690141668465,-0.0825523797,-0.1136590735,10.1060862511
1776813909.897895,0.8443857883410846,-0.25305339723238146,0.46753807294953487,0.06621758784032425,0.02153299964648,-0.040622538340168,0.000610865238198,-0.0861416135999999,-0.1136590735,10.1084790737
1776813909.9989264,0.8453021229033626,-0.25308326623800625,0.4660913984922764,0.06459094067193,0.020616701789183,-0.041844268816564,0.000305432619099,-0.0873380249,-0.1100698396,10.1204431867
1776813910.1000571,0.8462089510233284,-0.2531048931073004,0.46465476884491486,0.06296244978412838,0.020616701789183,-0.041538836197465,0.0004581489286485,-0.0909272588,-0.1064806057,10.1144611302
1776813910.201507,0.8471132451548673,-0.2531642838808331,0.46318528825175265,0.061370872549079705,0.0195476876223364,-0.041844268816564,0.000305432619099,-0.0861416135999999,-0.1040877831,10.1132647189
1776813910.302708,0.8479860323321358,-0.25326893996522276,0.46172744927444254,0.059852281535555704,0.0184786734554899,-0.041233403578366,-0.000305432619099,-0.0861416135999999,-0.0885344362,10.1084790737
1776813910.404092,0.8488809844903643,-0.25335749451730427,0.4602315863723827,0.058291860904794504,0.0186313897650394,-0.042149701435663,0.000305432619099,-0.0813559683999999,-0.0873380249,10.1108718963
1776813910.5050757,0.8497610021963534,-0.2534557074653323,0.4587439828057307,0.05674858358613094,0.0184786734554899,-0.0419969851261135,0.0001527163095495,-0.0849452023,-0.0837487909999999,10.1084790737
1776813910.6065552,0.8506381562357254,-0.25353208909748526,0.4572649710681902,0.055181094477709094,0.0187841060745889,-0.0416915525070145,0.0004581489286485,-0.0729810893,-0.0849452023,10.1120683076
1776813910.707603,0.8514920576405404,-0.25365091232008413,0.4557848843012369,0.05369012662283275,0.0174096592886434,-0.0413861198879155,0.0001527163095495,-0.0634097989,-0.0765703232,10.1048898398
1776813910.8089302,0.8523350625646118,-0.25384026172593266,0.45426693910459665,0.052264813081365505,0.0160352125026979,-0.0416915525070145,-0.000610865238198,-0.0634097989,-0.0753739119,10.109675485
1776813910.9101326,0.853184769065685,-0.2540228538405496,0.4527270581541587,0.05085617343172365,0.0151189146454008,-0.0419969851261135,0.0001527163095495,-0.0669990328,-0.059820565,10.1132647189
1776813911.0118008,0.8540203525410412,-0.2542415009916714,0.45117667868779865,0.04949849722389779,0.0140499004785543,-0.0416915525070145,-0.0001527163095495,-0.0610169763,-0.0610169763,10.1120683076
1776813911.1133957,0.8548449416086589,-0.2544909827251932,0.44961095445393656,0.048212603670347035,0.0123700210735098,-0.041538836197465,0.0,-0.0634097989,-0.0610169763,10.1060862511
1776813911.214489,0.8556513008971699,-0.2547234346874425,0.44807189734601915,0.0469935942735991,0.0108428579780147,-0.040622538340168,0.000916297857297,-0.0538385085,-0.0538385085,10.1072826624
1776813911.3157604,0.8564372604612474,-0.2550581193358495,0.44649459157769766,0.045860160775536854,0.0094684111920692,-0.040927970959267,-0.000610865238198,-0.0442672181,-0.0705882667,10.1168539528
1776813911.41688,0.8572215903737643,-0.2553992598705597,0.44489900773949903,0.044802187078912675,0.0073303828583761,-0.0407752546497175,0.000305432619099,-0.0693918554,-0.0729810893,10.1048898398
1776813911.518636,0.8579866044649317,-0.2557979019224671,0.44328967794797597,0.0438255787820358,0.0058032197628811,-0.040317105721069,-0.000305432619099,-0.0873380249,-0.0813559683999999,10.1240324206
1776813911.6196873,0.8587457349505685,-0.2562506401734438,0.4416412524151389,0.04294620216149196,0.0035124751196385,-0.0407752546497175,-0.000305432619099,-0.0789631458,-0.0801595571,10.1144611302
1776813911.7212598,0.8594874243496947,-0.2567501126933255,0.43998288740314345,0.04214031097518632,0.002138028333693,-0.040317105721069,-0.0007635815477475,-0.0801595571,-0.0837487909999999,10.1144611302
1776813911.8222651,0.8602198173924471,-0.25725799085868384,0.4383232425658108,0.041387521443685724,0.000916297857297,-0.0401643894115195,-0.0004581489286485,-0.0777667345,-0.0909272588,10.109675485
1776813911.9236784,0.8609312899201693,-0.2577585206863332,0.4366949172465625,0.04068670914444149,0.0,-0.0389426589351234,-0.0001527163095495,-0.0873380249,-0.0945164927,10.1060862511
1776813912.0248952,0.8616502005011905,-0.25833619094499943,0.4349901226410957,0.040061672817940056,-0.0019853120241435,-0.0401643894115195,-0.000610865238198,-0.0909272588,-0.0897308475,10.1084790737
1776813912.1266167,0.8623601226671845,-0.25893503151440633,0.43327742849841144,0.03947579311269017,-0.002748893571891,-0.0398589567924205,-0.0007635815477475,-0.0981057266,-0.0921236701,10.109675485
1776813912.227888,0.8630613905618185,-0.2595869781671904,0.431532954740794,0.03897365597690777,-0.0045814892864851,-0.0401643894115195,-0.0010690141668465,-0.0981057266,-0.095712904,10.1072826624
1776813912.3294775,0.8637646226958738,-0.260286945751231,0.4297422892336841,0.03850905471110705,-0.0054977871437821,-0.0407752546497175,-0.001527163095495,-0.0885344362,-0.0945164927,10.1132647189
1776813912.430858,0.8644552152080023,-0.26097241960845924,0.42797343586718467,0.038069873856233616,-0.0059559360724306,-0.0401643894115195,-0.001221730476396,-0.0909272588,-0.0969093152999999,10.1013006059
1776813912.5323017,0.865135664910447,-0.2617059951978873,0.42617854197345584,0.03771079074776251,-0.0076358154774751,-0.0401643894115195,-0.001527163095495,-0.0813559683999999,-0.1016949604999999,10.0989077833
1776813912.6336718,0.8657792804006745,-0.26247046168948496,0.424418405347108,0.03747681379222498,-0.0097738438111682,-0.0386372263160244,-0.0016798794050445,-0.0801595571,-0.1004985492,10.1084790737
1776813912.734975,0.8664319168332085,-0.263268433146841,0.4226092972893426,0.03724040071947804,-0.0099265601207177,-0.039706240482871,-0.002138028333693,-0.0909272588,-0.1088734283,10.1108718963
1776813912.8363552,0.8670827749315418,-0.26407064949339665,0.42078868081316023,0.03702755180501981,-0.0105374253589157,-0.039706240482871,-0.0019853120241435,-0.0813559683999999,-0.1268195978,10.1060862511
1776813912.937457,0.867736750953751,-0.2648903256918405,0.41893419785407876,0.036880676071055496,-0.0123700210735098,-0.04001167310197,-0.001527163095495,-0.095712904,-0.1399801221,10.1072826624
1776813913.0389297,0.8683812430658661,-0.26572977993259045,0.4170695590394155,0.036806027645288494,-0.0138971841690048,-0.0395535241733214,-0.0013744467859455,-0.0849452023,-0.1399801221,10.1001041946
1776813913.139935,0.8690144647963024,-0.26661728895498454,0.41518374080074877,0.036763332000608814,-0.0143553330976533,-0.04001167310197,-0.0022907446432425,-0.0933200814,-0.1507478238,10.0953185494
1776813913.2413993,0.8696554945780992,-0.2674672240518353,0.41329341373910844,0.03673089936281482,-0.0149661983358513,-0.039706240482871,-0.001221730476396,-0.0945164927,-0.1782652837,10.1060862511
1776813913.3429184,0.8703195048916239,-0.2683342593678947,0.411339043497346,0.0366179730374359,-0.0135917515499058,-0.041538836197465,-0.001832595714594,-0.0897308475,-0.1734796385,10.1084790737
1776813913.445594,0.8709801344019746,-0.26915340937287463,0.4094147751164909,0.03646353817704755,-0.0125227373830593,-0.040622538340168,-0.0013744467859455,-0.1064806057,-0.2321037922,10.085747259
1776813913.5466526,0.8716299959414806,-0.2699549711332644,0.40751391599763054,0.03630250685240648,-0.0123700210735098,-0.0407752546497175,-0.0013744467859455,-0.0945164927,-0.2261217357,10.0917293155
1776813913.6479683,0.8722732430269529,-0.2707445738396079,0.4056297557978325,0.03607307093999769,-0.0105374253589157,-0.0407752546497175,-0.0019853120241435,-0.0993021378999999,-0.2404786712999999,10.086943670299998
1776813913.7490094,0.8729380643739147,-0.2714556932624103,0.40374787971949033,0.035757404611680144,-0.0093156948825197,-0.041233403578366,-0.0007635815477475,-0.1040877831,-0.2404786712999999,10.0761759686
1776813913.8503115,0.8736044385000713,-0.2721432714449244,0.4018731165935501,0.03537404415127329,-0.0077885317870246,-0.0413861198879155,-0.000916297857297,-0.095712904,-0.2368894373999999,10.0953185494
1776813913.951616,0.8742844541134689,-0.27279099348623603,0.39999166856706514,0.034906048834566536,-0.0062613686915296,-0.0419969851261135,-0.000610865238198,-0.0921236701,-0.2297109696,10.1001041946
1776813914.0528328,0.874958695923963,-0.2733922305358795,0.39815024675174954,0.03435621808603789,-0.0042760566673861,-0.0416915525070145,-0.000610865238198,-0.0897308475,-0.2428714938999999,10.086943670299998
1776813914.1542857,0.8756251421164352,-0.2739660642639441,0.3963370637584388,0.033765929820403204,-0.0032070425005395,-0.041233403578366,-0.000610865238198,-0.1028913717999999,-0.2428714938999999,10.0881400816
1776813914.2553098,0.8763017564247512,-0.2745134881631843,0.3945142425463115,0.03310723382415673,-0.0019853120241435,-0.0419969851261135,-0.0004581489286485,-0.1052841944,-0.2416750825999999,10.1013006059
1776813914.3578594,0.8769906321606896,-0.27501458507730286,0.39269456881777187,0.03233240971807057,0.000305432619099,-0.0419969851261135,-0.000305432619099,-0.1040877831,-0.2380858487,10.0953185494
1776813914.4593346,0.8776609285935293,-0.27551554555153823,0.39090296712685657,0.03158083075541013,0.0001527163095495,-0.0416915525070145,-0.0004581489286485,-0.0885344362,-0.23928226,10.090532904199998
1776813914.5606818,0.8783284859249476,-0.2760514789625079,0.38908215766046594,0.030817630760288456,0.0004581489286485,-0.042455134054762,-0.001221730476396,-0.0897308475,-0.2416750825999999,10.0917293155
1776813914.6616957,0.8789907445425854,-0.27653798323663314,0.38730421780191104,0.029957598514180603,0.002748893571891,-0.0423024177452125,-0.001221730476396,-0.1028913717999999,-0.2524427843,10.0881400816
1776813914.763343,0.8796695039526183,-0.276969695146793,0.38552122495129126,0.029029931072998158,0.003665191429188,-0.042455134054762,-0.000305432619099,-0.1100698396,-0.2560320182,10.0917293155
1776813914.8697915,0.8804210691189169,-0.27710707757488734,0.38382227879206665,0.02740195088444776,0.0169515103599949,-0.04306599929296,0.0007635815477475,-0.1016949604999999,-0.2380858487,10.0941221381
1776813914.9718497,0.8811569928095648,-0.27723018495416674,0.3821524000680521,0.025793830566828768,0.0174096592886434,-0.0441350134598066,0.0010690141668465,-0.0873380249,-0.1986042757999999,10.0881400816
1776813915.073294,0.8818557960589413,-0.2773092806123852,0.38058714595805615,0.024152477616048523,0.0190895386936879,-0.042455134054762,0.000916297857297,-0.0801595571,-0.1938186305999999,10.097711372
1776813915.174616,0.8825583068440394,-0.27736467023738093,0.3790165492186436,0.022497336355288805,0.0190895386936879,-0.0426078503643115,0.001527163095495,-0.0765703232,-0.1806581063,10.0881400816
1776813915.2760663,0.8832469222885243,-0.2774089655827678,0.37747295900087996,0.020815986771429262,0.0198531202414355,-0.042149701435663,0.0013744467859455,-0.0693918554,-0.1830509289,10.085747259
1776813915.377401,0.883935691931399,-0.2774518063139711,0.3759163853354263,0.019106515622192677,0.020311269170084,-0.0426078503643115,0.0013744467859455,-0.0777667345,-0.1782652837,10.0989077833
1776813915.4785182,0.884628357538102,-0.27748243197622585,0.374346228860904,0.017351366563436305,0.0210748507178315,-0.0432187156025095,0.001527163095495,-0.0753739119,-0.1866401628,10.086943670299998
1776813915.581071,0.8853150033356041,-0.2775464256417565,0.3727496756526174,0.015588642764296931,0.020922134408282,-0.0432187156025095,0.000916297857297,-0.0789631458,-0.1806581063,10.0917293155
1776813915.682084,0.8859868891650724,-0.27758484307702935,0.37119115492867705,0.013820767859042571,0.02153299964648,-0.04306599929296,0.001221730476396,-0.0849452023,-0.1746760498,10.1048898398
1776813915.7834442,0.886635137694921,-0.27765305337691765,0.36965144989070725,0.01202996878137684,0.022449297503777,-0.042760566673861,0.0001527163095495,-0.0753739119,-0.1567298802999999,10.0989077833
1776813915.8844397,0.8872846357505579,-0.2776807286386648,0.36812326399613715,0.010229888001847168,0.022449297503777,-0.0426078503643115,0.0010690141668465,-0.0681954441,-0.1411765334,10.0965149607
1776813915.985832,0.8879253560184298,-0.27770175900373134,0.3666053905125251,0.008413253409778873,0.022754730122876,-0.0423024177452125,0.0010690141668465,-0.071784678,-0.1507478238,10.1060862511
1776813916.086949,0.888555373313922,-0.2777322942751105,0.3650901143993385,0.006582525314666451,0.0232128790515245,-0.042455134054762,0.0007635815477475,-0.0801595571,-0.1351944769,10.1120683076
1776813916.18847,0.8891871276187381,-0.27777072123111696,0.36354788501247776,0.004755397652934035,0.022754730122876,-0.042760566673861,0.000916297857297,-0.0777667345,-0.1256231865,10.1120683076
1776813916.2898247,0.8897846996958182,-0.2778128627340426,0.362069349235422,0.002997971143434211,0.0219911485751285,-0.0410806872688165,0.0007635815477475,-0.0741775006,-0.1244267751999999,10.1108718963
1776813916.3913722,0.8904003689842467,-0.2778393265641256,0.36054265428047116,0.0012190043080403945,0.0216857159560295,-0.0419969851261135,0.001527163095495,-0.0801595571,-0.1172483074,10.1156575415
1776813916.4926329,0.8910033095470987,-0.277861334536063,0.35903466852310817,-0.0005366045627907823,0.0213802833369305,-0.041538836197465,0.0016798794050445,-0.0885344362,-0.1232303638999999,10.1060862511
1776813916.5939496,0.891593465723245,-0.27793199728182055,0.35750491659266814,-0.002265254647966078,0.020922134408282,-0.041844268816564,0.000916297857297,-0.0885344362,-0.1136590735,10.1013006059
1776813916.6951368,0.8921680617873412,-0.2780539569035154,0.35595911373896255,-0.00390588313815364,0.0192422550032374,-0.0416915525070145,0.0004581489286485,-0.0933200814,-0.0969093152999999,10.1108718963
1776813916.796524,0.89274804727967,-0.2782292935372556,0.3543432011906749,-0.005502732597595844,0.0178678082172919,-0.042760566673861,0.0001527163095495,-0.0801595571,-0.0945164927,10.0989077833
1776813916.897972,0.8933245915150598,-0.2783647651840483,0.35275170525212557,-0.0071039524350038075,0.0178678082172919,-0.042149701435663,0.000916297857297,-0.0777667345,-0.0825523797,10.1084790737
1776813916.999251,0.893864962662272,-0.2785767309365995,0.3511784573566721,-0.008609564102826484,0.0166460777408959,-0.0413861198879155,-0.0004581489286485,-0.0514456858999999,-0.0801595571,10.1036934285
1776813917.1005318,0.8944164020643662,-0.27876387950837594,0.349581690083568,-0.010131197263395342,0.0164933614313464,-0.041844268816564,0.000305432619099,-0.0562313311,-0.0765703232,10.1156575415
1776813917.201848,0.8949653018474525,-0.27894984617013324,0.3479791703082602,-0.01160124313737268,0.0152716309549503,-0.041538836197465,0.0007635815477475,-0.0562313311,-0.0693918554,10.1084790737
1776813917.303472,0.8955098256920893,-0.2791552701849255,0.3463574563504482,-0.013076683346799955,0.0152716309549503,-0.041844268816564,0.0004581489286485,-0.059820565,-0.0658026215,10.1084790737
1776813917.4045072,0.8960555817897842,-0.2793638335940941,0.3447151059363506,-0.01455123920061041,0.0151189146454008,-0.042455134054762,0.000610865238198,-0.0610169763,-0.0693918554,10.1168539528
1776813917.505821,0.8965871577776867,-0.27957670347967245,0.3430918618742667,-0.01600967505034996,0.0149661983358513,-0.041844268816564,0.0004581489286485,-0.0753739119,-0.0610169763,10.1108718963
1776813917.6070628,0.8971009514974683,-0.2798307344825515,0.34146967240629184,-0.01740993073025729,0.0140499004785543,-0.041538836197465,-0.0001527163095495,-0.0681954441,-0.059820565,10.1120683076
1776813917.7085347,0.8976196858361236,-0.2800833090141051,0.3398226547908542,-0.018783048263369753,0.0131336026212573,-0.0416915525070145,0.000305432619099,-0.071784678,-0.059820565,10.1108718963
1776813917.8096294,0.8981230799581156,-0.28033490965438823,0.33820311911552997,-0.020147503471669173,0.0132863189308068,-0.041233403578366,0.0001527163095495,-0.0669990328,-0.0586241537,10.1084790737
1776813917.9111197,0.8986265662668432,-0.28064183319804625,0.3365281354236932,-0.021430583915399454,0.0113010069066632,-0.0416915525070145,-0.0001527163095495,-0.0538385085,-0.0514456858999999,10.1156575415
1776813918.012148,0.8991142471374868,-0.2809395490042956,0.3348956925640798,-0.022614497599524552,0.0096211275016187,-0.040317105721069,0.000305432619099,-0.0502492746,-0.0634097989,10.109675485
1776813918.114195,0.8996077530742563,-0.2812843580304807,0.3331992941770902,-0.023732486088842653,0.0077885317870246,-0.0407752546497175,0.0001527163095495,-0.0658026215,-0.0669990328,10.1108718963
1776813918.2155905,0.9000919085811974,-0.2816378614244401,0.33151300365419284,-0.024774977842583423,0.0064140850010791,-0.040317105721069,0.000305432619099,-0.0849452023,-0.0753739119,10.1048898398
1776813918.3169074,0.9005738374810311,-0.28204937636346705,0.3297788959937341,-0.02570588054944957,0.0039706240482871,-0.040622538340168,0.0,-0.0861416135999999,-0.0741775006,10.1144611302
1776813918.418349,0.9010462624013803,-0.28249669131449606,0.32803346161180047,-0.026557493704119486,0.002443460952792,-0.040317105721069,-0.000305432619099,-0.0861416135999999,-0.0873380249,10.1204431867
1776813918.519376,0.9015092062207157,-0.28299755435228235,0.32626400828400043,-0.027300773402589767,0.000305432619099,-0.040317105721069,-0.0007635815477475,-0.0741775006,-0.0945164927,10.1060862511
1776813918.620801,0.90196706232358,-0.2835283493644962,0.32447355683282,-0.02800008046906731,-0.000610865238198,-0.040317105721069,-0.0010690141668465,-0.0969093152999999,-0.0969093152999999,10.1060862511
1776813918.7219582,0.9024285081398216,-0.28404429212527516,0.3226770277216374,-0.02865595205741492,-0.0016798794050445,-0.0401643894115195,-0.0004581489286485,-0.095712904,-0.0921236701,10.1084790737
1776813918.8233547,0.9028880925467238,-0.28459491574738116,0.32084635908527287,-0.029264998373553397,-0.002748893571891,-0.0404698220306185,-0.0007635815477475,-0.1004985492,-0.0897308475,10.1168539528
1776813918.9247544,0.9033396369099054,-0.28536288296667967,0.31887930041772433,-0.029351612860765805,-0.0135917515499058,-0.04001167310197,-0.001832595714594,-0.0921236701,-0.0921236701,10.1120683076
1776813919.026169,0.9037945464882902,-0.28618651558387553,0.31684103747175824,-0.02940158175686919,-0.0146607657167523,-0.041233403578366,-0.002443460952792,-0.0861416135999999,-0.0933200814,10.1060862511
1776813919.1271598,0.904239296518071,-0.28694734207245676,0.3148731589637322,-0.0294518467036739,-0.0143553330976533,-0.0398589567924205,-0.0016798794050445,-0.0909272588,-0.0993021378999999,10.1048898398
1776813919.2287328,0.904682131647531,-0.28776707191421713,0.3128455755736177,-0.029461820100074407,-0.0152716309549503,-0.040622538340168,-0.002443460952792,-0.0897308475,-0.0993021378999999,10.097711372
1776813919.3297253,0.9051302569082312,-0.28852966713187356,0.3108372243847556,-0.029496934599901367,-0.0149661983358513,-0.0404698220306185,-0.001527163095495,-0.0861416135999999,-0.1770688724,10.1036934285
1776813919.4312909,0.9055916305409222,-0.2892696143810015,0.3087939439715603,-0.029549772530246488,-0.0149661983358513,-0.040927970959267,-0.000916297857297,-0.0945164927,-0.1782652837,10.1048898398
1776813919.532366,0.9060261666240806,-0.29004004970927116,0.3067891622065697,-0.029559514706914536,-0.0152716309549503,-0.0401643894115195,-0.001832595714594,-0.0969093152999999,-0.1998006870999999,10.0989077833
1776813919.6338546,0.9064628684314541,-0.2907874603215744,0.30478473250938865,-0.02956328641963958,-0.0154243472644998,-0.0398589567924205,-0.0013744467859455,-0.0933200814,-0.1902293967,10.1013006059
1776813919.7353263,0.9068890504784382,-0.2915470454180335,0.30278371210360094,-0.02957353741262221,-0.0151189146454008,-0.0398589567924205,-0.001832595714594,-0.0921236701,-0.1998006870999999,10.0953185494
1776813919.8363323,0.9073141392788131,-0.2923115852126534,0.30076074526935154,-0.029630455957286223,-0.0143553330976533,-0.0407752546497175,-0.002138028333693,-0.0837487909999999,-0.2117648001,10.0893364929
1776813919.9376905,0.9077619121205277,-0.2930107964180261,0.29870854351561926,-0.0297689455059245,-0.0132863189308068,-0.041538836197465,-0.000916297857297,-0.0993021378999999,-0.2201396792,10.0917293155
1776813920.039317,0.9081950569035868,-0.293732817540536,0.2966634688443937,-0.02989241992212055,-0.0132863189308068,-0.041233403578366,-0.001527163095495,-0.0945164927,-0.2261217357,10.086943670299998
1776813920.140592,0.9086198008793137,-0.2943963944150359,0.29467969976413994,-0.030078147422659768,-0.0117591558353117,-0.0404698220306185,-0.0010690141668465,-0.1028913717999999,-0.2189432679,10.086943670299998
1776813920.2418444,0.909036198813684,-0.2950706852196734,0.2926886451623111,-0.03032881407855184,-0.0103847090493662,-0.0410806872688165,-0.0016798794050445,-0.0969093152999999,-0.2404786712999999,10.0989077833
1776813920.3431668,0.9094575896945484,-0.29572536209515315,0.2906782764595203,-0.030651955161064295,-0.0091629785729702,-0.041844268816564,-0.001527163095495,-0.1028913717999999,-0.2476571390999999,10.085747259
1776813920.4442172,0.909868481988602,-0.2963236312396993,0.2887412823268756,-0.03098585052741376,-0.0085521133347722,-0.0404698220306185,-0.000916297857297,-0.1004985492,-0.2380858487,10.0953185494
1776813920.5455086,0.9102924219171993,-0.29690968309822025,0.28674992487227846,-0.031413806970450014,-0.0071776665488266,-0.0419969851261135,-0.0007635815477475,-0.0969093152999999,-0.2333002035,10.0917293155
1776813920.6466584,0.9107093433074024,-0.29746069682461396,0.284798132526527,-0.03186925739043482,-0.0064140850010791,-0.0413861198879155,-0.0004581489286485,-0.0981057266,-0.2356930260999999,10.0917293155
1776813920.748104,0.9111155339514617,-0.29805518636528777,0.2828176975678154,-0.032337897512610334,-0.0061086523819801,-0.0419969851261135,-0.0013744467859455,-0.0885344362,-0.2416750825999999,10.0845508477
1776813920.849274,0.9115190624964943,-0.29860234343381686,0.28087680148038485,-0.032830802480191754,-0.0054977871437821,-0.0413861198879155,-0.0007635815477475,-0.0897308475,-0.23928226,10.0797652025
1776813920.9508636,0.9119113333249804,-0.29917227193885815,0.278925556851486,-0.03337971826553836,-0.0042760566673861,-0.041844268816564,-0.001527163095495,-0.095712904,-0.2440679052,10.0809616138
1776813921.0530064,0.9123102200525993,-0.2996756674428494,0.2769979632552106,-0.034010073253753326,-0.002748893571891,-0.041538836197465,-0.000610865238198,-0.1112662509,-0.2572284295,10.097711372
1776813921.15436,0.9126983339441037,-0.30013755943037795,0.27512532902364967,-0.03471671016185253,-0.000916297857297,-0.041233403578366,-0.0004581489286485,-0.1004985492,-0.23928226,10.0989077833
1776813921.255602,0.9130735290120058,-0.3006029780853898,0.2732642026776485,-0.0355141622272802,0.0010690141668465,-0.0416915525070145,-0.0010690141668465,-0.0825523797,-0.23928226,10.0845508477
