timestamp,accel_x,accel_y,accel_z,gyro_x,gyro_y,gyro_z,roll,pitch,yaw
1776813861.2327569,-0.1854437515,-0.0741775006,10.0989077833,0.0039706240482871,-0.04108068726881653,0.0,0.0,0.0,0.0
1776813861.3341608,-0.1782652837,-0.06340979890000001,10.0929257268,0.004123340357836604,-0.04169155250701455,0.00015271630954950385,0.00041812300626151714,-0.004227688174422007,1.5486037268945082e-05
1776813861.4351072,-0.18185451760000002,-0.071784678,10.0989077833,0.004734205596034618,-0.04230241774521256,0.0,0.0008960241429843339,-0.008497966073525886,1.5486037268945082e-05
1776813861.5359797,-0.1806581063,-0.0669990328,10.097711372000001,0.005039638215133627,-0.04184426881656405,-0.0006108652381980154,0.0014043851326600671,-0.012718902775681972,-4.613347663114379e-05
1776813861.6368072,-0.1806581063,-0.0646062102,10.0953185494,0.004428772976935611,-0.04169155250701455,0.00015271630954950385,0.00185092704300301,-0.016922555931668987,-3.0735479722766444e-05
1776813861.7377553,-0.18185451760000002,-0.0669990328,10.0929257268,0.0039706240482871,-0.04337143191205909,-0.0022907446432425577,0.002251753977915953,-0.02130081937456421,-0.00026198178832638735
1776813861.8387158,-0.1926222193,-0.0646062102,10.0965149607,0.0039706240482871,-0.04153883619746504,-0.0007635815477475192,0.0026526301396971705,-0.02549460075935233,-0.0003390733578996984
1776813861.9395726,-0.17587246110000002,-0.062213387599999996,10.0929257268,0.003665191429188092,-0.04108068726881653,-0.00015271630954950385,0.0030222895490153467,-0.029637866638793555,-0.0003544758332879557
1776813862.0403707,-0.1866401628,-0.0741775006,10.1024970172,0.004123340357836604,-0.04214970143566306,0.00015271630954950385,0.003437914546584775,-0.033886477725058824,-0.0003390823148594584
1776813862.141215,-0.1830509289,-0.0658026215,10.094122138100001,0.001832595714594046,-0.04153883619746504,-0.0035124751196385882,0.003622721531150813,-0.038075436041889024,-0.0006932957019443652
1776813862.2421675,-0.12083754129999999,0.0179461695,10.109675485,-0.06505714786808864,-0.049785516913138254,0.004734205596034618,-0.0029449528281816125,-0.043101402805134026,-0.00021536634715726386
1776813862.3430169,-0.2380858487,-0.0251246373,10.0917293155,-0.2464841236128992,-0.03268129024359382,0.0003054326190990077,-0.02780272634659875,-0.04639729099159082,-0.00018456365382589195
1776813862.4438436,-0.24765713909999998,-0.8937192411,10.0319087505,-0.03451388595818787,-0.04260785036431157,0.014660765716752368,-0.03128264896163708,-0.050693301653518666,0.0012936335631815409
1776813862.5446434,-0.2380858487,-0.20458633229999998,10.1156575415,0.11682797680537042,-0.04169155250701455,-0.0022907446432425577,-0.019506412386115005,-0.054895801764783404,0.0010627269636615002
1776813862.6454368,-0.1698904046,-0.6999006105000001,10.0115697584,-0.20845776253507273,-0.0438295808407076,-0.000916297857297023,-0.04051757103694295,-0.05931353255803441,0.0009703702223391795
1776813862.7471108,-0.1292124204,-0.39720855159999996,10.090532904199998,0.22693643599056268,-0.047342055960346185,-0.005039638215133627,-0.017444017712947495,-0.06412699253814114,0.0004579696438116895
1776813862.8480515,-0.11246266220000001,-0.10648060570000001,10.0689975008,0.09361509775384584,-0.044898595007554123,-0.001069014166846527,-0.007994443808282445,-0.06865908834233612,0.0003500626008546661
1776813862.9488418,-0.1423729447,-0.46540399569999996,10.0450692748,-0.139124557999598,-0.04321871560250958,-0.000916297857297023,-0.022016844490622127,-0.07301511402082364,0.0002577086995439766
1776813863.0496342,-0.17587246110000002,-0.4462614149,10.1036934285,-0.08689558013366767,-0.04550946024575214,0.0,-0.03077525925593922,-0.0776021221052955,0.0002577086995439766
1776813863.1504362,-0.1950150419,-0.34815568830000004,10.0965149607,0.009773843811168246,-0.040317105721069016,-0.0003054326190990077,-0.029790036792260128,-0.08166616476797176,0.000226920497554005
1776813863.2513433,-0.17228322719999997,-0.4199403663,10.0725867347,0.06261368691529658,-0.04046982203061852,-0.003817907738737596,-0.023471872018892354,-0.08574985663368508,-0.00015833345204159096
1776813863.3522289,-0.2105683888,-0.3720839143,10.0989077833,0.030085112981252254,-0.039706240482871,0.0003054326190990077,-0.020436716452569077,-0.08975564570598991,-0.0001275196899469384
1776813863.4542313,-0.0945164927,-0.1591227029,10.1276216545,-0.00015271630954950385,-0.04153883619746504,0.0004581489286485115,-0.0204522938799559,-0.09399270595520534,-8.07874077864741e-05
1776813863.5554876,-0.040677984199999996,-0.0143569356,10.1491570579,0.036193765363232405,-0.04413501345980661,0.0007635815477475192,-0.016787444562938153,-0.09846165723207509,-3.4699116468591893e-06
1776813863.6566465,-0.17587246110000002,-0.35772697870000003,10.0821580251,0.059253928105207486,-0.030543261909900768,-0.0004581489286485115,-0.010793384902578154,-0.10155137870648746,-4.981573376304476e-05
1776813863.7576988,-0.3960121403,-0.13758729949999998,10.057033387799999,0.11301006906663283,-0.024587325837470118,-0.002901609881440573,0.0006265407188069255,-0.10403598414573476,-0.00034303004025806714
1776813863.8600466,-0.34815568830000004,-0.12323036389999999,10.106086251099999,-0.1482875365725682,-0.04459316238845512,-0.000916297857297023,-0.014550369949756664,-0.10859999847654894,-0.00043681115664465987
1776813863.9617257,-0.2021935097,-0.40319060809999996,10.086943670299998,0.10186177846951905,-0.05131268000863329,-0.001069014166846527,-0.004193157346847767,-0.1138174249151957,-0.0005455075407831341
1776813864.0638227,-0.1950150419,-0.2344966148,10.097711372000001,0.09605855870663792,-0.04612032548395016,-0.0012217304763960308,0.005614136631058635,-0.1185261733751762,-0.0006702425993256638
1776813864.165629,-0.2009970984,-0.047856452,10.1312108884,-0.18860464229363724,-0.037720928458727446,-0.0007635815477475192,-0.013586978473434711,-0.12236639639607487,-0.0007479799074410215
1776813864.2674918,-0.1734796385,-0.6209374647,10.086943670299998,-0.03558290012503439,-0.04153883619746504,-0.0003054326190990077,-0.017211556134238554,-0.1265976630215626,-0.000779092162040196
1776813864.368806,-0.1591227029,-0.263210486,10.1228360093,-0.1432478983574346,-0.04153883619746504,-0.0012217304763960308,-0.031724583426443645,-0.13080613149009115,-0.0009028706464086829
1776813864.4704869,-0.09690931529999999,-0.2715853651,10.2783694783,0.00839939702522271,-0.049480084294039245,-0.04550946024575214,-0.030870524387634345,-0.13583731564598595,-0.005530317802139078
1776813864.571482,-0.035892339,-0.39361931769999997,10.2843515348,-0.0033597588100890844,-0.04214970143566306,-0.14996741597761276,-0.03120984344295055,-0.14009422743086197,-0.020676286543980557
1776813864.6744123,-0.2117648001,-0.5216353268,10.114461130199999,-0.020922134408282025,-0.04413501345980661,-0.0004581489286485115,-0.03336336516881446,-0.14463705793286688,-0.020723443954035973
1776813864.776047,-0.2835494781,-0.5946164161,10.0414800409,-0.002596177262341565,-0.03634648167278191,-0.05299255941367783,-0.033627226972019905,-0.14833112317774308,-0.026109328995935294
1776813864.8777301,-0.27517459899999996,-0.5994020613,9.9864451211,-0.0641408500107916,-0.01069014166846527,-0.29046642076315626,-0.04014926999062383,-0.1494181303475104,-0.055644866665898775
1776813864.978982,-0.2548356069,-0.346959277,10.094122138100001,0.005345070834232635,-0.0681114740590787,0.012828170002158322,-0.0396080717305662,-0.1563145424613876,-0.05434599084176047
1776813865.0802615,-0.35174492220000003,-0.8805587168,10.262816131400001,0.0836885376331281,-0.036804630601430424,0.027183503099811684,-0.031132138722148137,-0.16004209694136706,-0.05159285931712833
1776813865.1817472,-0.0753739119,-0.8721838377000001,9.9816594759,-0.011301006906663283,-0.04474587869800463,0.0030543261909900766,-0.032279029648963196,-0.16458316507051318,-0.0512828887963675
1776813865.2830045,-0.1328016543,-0.41515472109999996,10.147960646600001,-0.0013744467859455344,-0.04612032548395016,-0.002596177262341565,-0.032418202452789105,-0.16925318582111581,-0.05154577075914976
1776813865.3844292,-0.2380858487,-0.6125625856,10.088140081599999,-0.04046982203061852,-0.03558290012503439,-0.002138028333693054,-0.036522841770959005,-0.1728621705801105,-0.051762619628788926
1776813865.486592,-0.17706887240000002,-0.6149554081999999,10.088140081599999,-0.011606439525762293,-0.04108068726881653,-0.001069014166846527,-0.0377085885717794,-0.17705909017775112,-0.05187183314991712
1776813865.5875719,-0.20338992099999997,-0.5252245607,10.116853952800001,-0.017715091907742442,-0.04352414822160859,-0.0013744467859455344,-0.03949745509805056,-0.18145415017764147,-0.05201062451833471
1776813865.6891057,-0.1890329854,-0.5276173833,10.1084790737,-0.010537425358915765,-0.037110063220529434,0.0006108652381980154,-0.04056736088290767,-0.18522207924605127,-0.05194860099457487
1776813865.7902565,-0.2081755662,-0.6592226263,10.0761759686,-0.01710422666954443,-0.03634648167278191,-0.001069014166846527,-0.042297466257754344,-0.18889855316760046,-0.052056732580502786
1776813865.8915653,-0.24167508259999998,-0.7334001269,10.0474620974,-0.014202616788103856,-0.038942658935123484,-0.006108652381980153,-0.04373631664284829,-0.19284378809447097,-0.05267559296118836
1776813865.9928238,-0.2608176634,-0.7429714173,10.061819033,-0.024587325837470118,-0.022143864884678056,-0.004123340357836604,-0.0462259927772215,-0.19508604299809904,-0.05309311628807082
1776813866.0943122,-0.3182454058,-0.8135596839999999,9.9984092341,-0.008857545953871221,-0.036499197982331415,-0.006566801310628665,-0.04712493051726663,-0.19879028644414704,-0.05375957012982841
1776813866.1953135,-0.5036891573,-0.4235296002,10.1072826624,0.061086523819801536,-0.029626964052603743,-0.04138611988791554,-0.0409551144796636,-0.2017826472223845,-0.05793962049530446
1776813866.2969449,-0.33738798659999997,-0.5036891573,10.1611211709,0.10140362954087054,-0.04612032548395016,0.023976460599272102,-0.030649321343239652,-0.2064699206067219,-0.05550285916636085
1776813866.3979547,-0.17706887240000002,-1.6881363443,9.9170532657,-0.12232576394915257,-0.028557949885757217,-0.14798210395346922,-0.04300542788899353,-0.20935455471915132,-0.07045050865804063
1776813866.499497,-0.21894326790000002,-0.6723831506,10.0474620974,-0.03940080786377199,-0.029932396671702752,-0.0007635815477475192,-0.04700627395746464,-0.21239395715876502,-0.07052804443456138
1776813866.6006231,-0.2225325018,-0.5611168997,10.0713903234,-0.04352414822160859,-0.037110063220529434,-0.0022907446432425577,-0.05140770541421841,-0.21614675661136562,-0.07075969872175895
1776813866.702057,-0.17228322719999997,-0.5240281494,10.1491570579,-0.04306599929296008,-0.0316122760767473,-0.0015271630954950383,-0.0557760513908558,-0.2193533084452803,-0.07091460460745531
1776813866.8036337,-0.299102825,-0.6496513358999999,10.0546405652,-0.019394971312786988,-0.027183503099811684,0.00198531202414355,-0.057746130612100856,-0.222114521841986,-0.07071294295488692
1776813866.9047482,-0.1830509289,-0.7429714173,10.0546405652,-0.004123340357836604,-0.04856378643674222,-0.00916297857297023,-0.05816306015808996,-0.22702502538363548,-0.07163945305708494
1776813867.006305,-0.23928226,-0.7010970218,10.073783146,-0.009468411192069237,-0.0398589567924205,-0.000916297857297023,-0.05912464149110107,-0.23107297260808546,-0.07173250931511828
1776813867.1075225,-0.2380858487,-0.5527420206,10.1491570579,-0.002901609881440573,-0.03466660226773737,0.000916297857297023,-0.059418335213405685,-0.23458183971140903,-0.07163976392912735
1776813867.2090745,-0.2285145583,-0.7022934331,10.0199446375,-0.030695978219450273,-0.03375030441044035,0.02107485071783153,-0.0625355734876921,-0.23800925094831102,-0.06949957048707996
1776813867.3104181,-0.2931207685,-0.777667345,10.0534441539,0.02580905631386615,-0.04413501345980661,0.00717766654882668,-0.05991998998894957,-0.24248205349941512,-0.06877215969157167
1776813867.4118686,-0.2656033086,-0.7046862557000001,10.0713903234,-0.009010262263420726,-0.03344487179134134,0.001832595714594046,-0.06083408508953293,-0.2458750505676822,-0.0685862420439954
1776813867.5128846,-0.24167508259999998,-0.7357929495000001,10.0761759686,-0.012217304763960306,-0.037415495839628436,-0.0024434609527920616,-0.06206822889266496,-0.249654615964774,-0.0688330708046218
1776813867.6143568,-0.28115665549999996,-0.6795616184,10.094122138100001,0.025198191075668133,-0.04550946024575214,0.0015271630954950383,-0.059511314536252136,-0.25427255825696204,-0.06867810629817253
1776813867.715416,-0.2333002035,-0.6544369810999999,10.088140081599999,-0.02748893571891069,-0.03145955976719779,0.0004581489286485115,-0.06228932434431131,-0.25745183614840755,-0.06863180613470488
1776813867.8168619,0.18783657410000001,-0.0945164927,9.911071209200001,0.0158824961931484,-0.04230241774521256,-0.037262779530078935,-0.06067811001227823,-0.2617432435519957,-0.07241196283678249
1776813867.9179301,-0.2883351233,-0.4199403663,10.1001041946,0.07238753072646481,-0.02138028333693054,-0.0032070425005395805,-0.05336202836016469,-0.26390411155051025,-0.07273609303655967
1776813868.0193787,-0.3302095188,-1.1306086785,9.9385886691,-0.018936822384138473,-0.028557949885757217,0.027336219409361186,-0.055283141265997274,-0.2668012737552739,-0.06996287359991425
1776813868.1208997,-0.1531406464,-0.71784678,10.0366943957,-0.013591751549905842,-0.05314527572322733,-0.0024434609527920616,-0.05666298968124457,-0.2721966360980386,-0.07021093623636321
1776813868.2220602,-0.1710868159,-0.4450650036,10.1240324206,0.001069014166846527,-0.0436768645311581,-0.000916297857297023,-0.056554847645530266,-0.2766150107000802,-0.0703036294098326
1776813868.3237345,-0.1782652837,-0.4689932296,10.1276216545,0.010995574287564275,-0.04428772976935611,-0.0004581489286485115,-0.055436880125375634,-0.28111793543403635,-0.07035021138983905
1776813868.4250655,-0.215354034,-0.3565305674,10.1503534692,-0.0013744467859455344,-0.04138611988791554,-0.0003054326190990077,-0.055576154186539314,-0.2853116321646316,-0.07038116118120875
1776813868.5265212,-0.1495514125,-0.6460621019999999,10.086943670299998,-0.010537425358915765,-0.04550946024575214,-0.005497787143782138,-0.0566452359310985,-0.28992882578606116,-0.07093894296097876
1776813868.6275144,-0.2261217357,-0.5335994398,10.0989077833,-0.007788531787024695,-0.038026361077826455,0.00015271630954950385,-0.057431824340249696,-0.29376922801897587,-0.07092351965883854
1776813868.728959,-0.24765713909999998,-0.5132604477,10.1084790737,-0.02748893571891069,-0.035735616434583894,0.00015271630954950385,-0.060220431760941974,-0.2973944176658758,-0.07090802739539025
1776813868.8299935,-0.3768695595,-0.4139583098,10.1084790737,-0.011453723216212788,-0.037720928458727446,0.007635815477475192,-0.06137765184647018,-0.3012055291475487,-0.07013654733837145
1776813868.9313838,-0.24047867129999997,-0.6592226263,10.0965149607,-0.007483099167925688,-0.04108068726881653,0.005345070834232635,-0.062136365978385844,-0.30537071489214695,-0.0695946086727174
1776813869.0325623,-0.2309073809,-0.32901310749999996,10.0187482262,-0.01511891464540088,-0.05207626155638081,0.06093380751025203,-0.06366607368789205,-0.31063970811377944,-0.06342942305561663
1776813869.1394453,-0.5778666579,-0.5407779076,10.022337460100001,0.0198531202414355,-0.06307183584394509,0.12125674978230604,-0.06154411166410085,-0.3173810182355161,-0.05046913192569191
1776813869.2411518,-0.48574298779999997,-0.7932206919,10.609775408399999,0.10980302656609325,-0.04673119072214818,-0.03695734691097993,-0.05037642961321074,-0.3221338843100257,-0.054227934507493594
1776813869.3428764,-0.4007977855,-0.9990034355,10.060622621699999,-0.04627304179349966,-0.04077525464971753,0.0638354173916926,-0.05508353742031813,-0.3262817317836154,-0.047734300634982414
1776813869.4440517,-0.062213387599999996,-0.7345965382,9.8512506442,-0.1310305935934743,-0.0555887366760194,-0.048869219055841226,-0.06834059811437529,-0.33190593935079116,-0.05267865893579628
1776813869.5455754,-0.215354034,-0.4689932296,10.5475620208,0.046883907031697675,-0.0632245521534946,0.036193765363232405,-0.06358077331957154,-0.3383247258818946,-0.04900413621146896
1776813869.6468887,-0.1172483074,-0.5491527867,9.7926264905,-0.017715091907742442,-0.01634064512179691,0.02229658119422756,-0.06537554867209348,-0.3399802514225829,-0.04674519481950169
1776813869.7484558,-0.47736810869999996,-1.0731809361,10.4123675439,0.05085453107998478,-0.03237585762449481,-0.04673119072214818,-0.060210404990646754,-0.34326857112368414,-0.05149154306731761
1776813869.8497264,-0.3553341561,-0.33260234139999995,10.3704931484,0.1035416578745636,-0.05451972250917286,0.038789942625573975,-0.049724671338818076,-0.34878982025893907,-0.047563259368844917
1776813869.9511898,-0.6795616184,-0.7501498851,10.420742422999998,0.09880745227852898,-0.040011673101970006,0.035430183815484885,-0.039699339400248765,-0.35284953736543856,-0.043968395366143095
1776813870.0522752,-0.5790630692000001,-0.9607182739,10.4697952863,0.12858713264068222,-0.050396382151336266,-0.0916297857297023,-0.026701054521900802,-0.35794387704460107,-0.053230831146438555
1776813870.1535964,-0.2656033086,-0.6149554081999999,10.085747259,0.012522737383059314,-0.037568212149177944,-0.06551529679673715,-0.02543223548752621,-0.36175033414772484,-0.05986892097261782
1776813870.2546544,-0.3146561719,-0.5048855686,10.1264252432,-0.020005836550985003,-0.0317649923862968,-0.0039706240482871,-0.02745398544346477,-0.3649604409479937,-0.060270184322651424
1776813870.3560164,-0.2644068973,-0.5730810127,10.1120683076,0.015729779883598895,-0.04138611988791554,-0.00015271630954950385,-0.025859583652594845,-0.3691554204171757,-0.060285663951688995
1776813870.457445,-0.28115665549999996,-0.6173482308,10.083354436399999,0.014202616788103856,-0.05115996369908379,-0.0015271630954950383,-0.024419033411308397,-0.37434449924331503,-0.06044056182709614
1776813870.5586298,-0.2799602442,-0.5431707302,10.1072826624,-0.006108652381980153,-0.040317105721069016,-0.0016798794050445422,-0.025037136455558974,-0.37842397933536887,-0.06061054016426505
1776813870.6602948,-0.24167508259999998,-0.47736810869999996,10.16949605,0.002901609881440573,-0.0436768645311581,-0.002901609881440573,-0.024742144228962,-0.3828643886409865,-0.06090553239086203
1776813870.761294,-0.3361915753,-0.34337004309999997,10.001998468,-0.005039638215133627,-0.026114488932965158,-0.039095375244672985,-0.025251143238173807,-0.3855019289614477,-0.06485413076535362
1776813870.863198,-0.2201396792,-0.47976093129999997,10.170692461300002,0.011911872144861299,-0.04550946024575214,-0.000916297857297023,-0.024037273986793797,-0.3901395319987713,-0.06494750532315209
1776813870.9644454,-0.3146561719,-0.5718846014,10.109675485,-0.0035124751196385882,-0.040622538340168025,-0.0013744467859455344,-0.024392902646341592,-0.39425245475701975,-0.0650866643638447
1776813871.0659919,-0.24885355039999998,-0.6460621019999999,10.079765202499999,-0.018173240836390957,-0.03527746750593539,-0.001832595714594046,-0.02623833211862427,-0.397834759026745,-0.06527275809214211
1776813871.1671002,-0.24885355039999998,-0.6065805291,10.085747259,-0.02626720524251466,-0.020311269170084013,0.002596177262341565,-0.02889416491759172,-0.3998883971794349,-0.06501026298991859
1776813871.2688203,-0.2739781877,-0.6472585133,10.0821580251,-0.0317649923862968,-0.04016438941151951,0.014813482026301871,-0.03212530295066028,-0.40397392267317067,-0.06350343419565103
1776813871.3698459,-0.42233318890000004,-0.4103690759,9.7770731436,-0.005803219762881146,0.037262779530078935,-0.1750128907437314,-0.032711576600964395,-0.40020942870806003,-0.08118421322850673
1776813871.4715629,-0.5718846014,-0.0466600407,10.240084316699999,0.06933320453547474,-0.04352414822160859,-0.020158552860534508,-0.025659211365307022,-0.40463657428551014,-0.08323468065385205
1776813871.5726764,-0.041874395499999995,-0.4211367776,10.048658508699999,0.11301006906663283,-0.07070765132142026,-0.08582656596682116,-0.014232361212998547,-0.41178607647540044,-0.09191291009384848
1776813871.6739955,-0.0538385085,-0.753739119,9.8739824589,-0.007635815477475192,-0.08536841703817265,-0.11514809740032589,-0.015006014971227395,-0.420435525492399,-0.10357960876793951
1776813871.7758157,-0.3565305674,-1.1473584366999998,10.228120203700001,-0.04673119072214818,-0.048258353817643214,0.1192714377581625,-0.019764195581348697,-0.4253492022008903,-0.0914353634852443
1776813871.8768628,-0.2656033086,-0.3182454058,10.145567823999999,-0.023976460599272102,-0.028557949885757217,0.0006108652381980154,-0.022186945931372132,-0.42823489847766977,-0.09137363736167682
1776813871.9786255,-0.2380858487,-0.7118647235000001,10.013962581,-0.021227567027381034,-0.03375030441044035,-0.004581489286485115,-0.024347121986540016,-0.4316694229970374,-0.09183986240955479
1776813872.0797405,-0.18185451760000002,-0.4331008906,10.2125668568,0.010537425358915765,-0.04321871560250958,-0.001832595714594046,-0.023281630344376338,-0.4360394829206943,-0.09202516530384412
1776813872.18108,-0.2201396792,0.031106693799999998,9.839286531199999,-0.10567968620825664,0.005345070834232635,0.005803219762881146,-0.0339911652143174,-0.43549781569461343,-0.09143706945838494
1776813872.2821612,-0.0646062102,-0.4331008906,10.1874422195,-0.037262779530078935,-0.049938233222687756,-0.005345070834232635,-0.03775772918380314,-0.4405456288832275,-0.09197735527368002
1776813872.3841681,-0.27517459899999996,-0.6556333924,10.04985492,0.006566801310628665,-0.05696318346196493,0.0033597588100890844,-0.0370878700588685,-0.44635626733905587,-0.09163463665162044
1776813872.4851706,-0.11246266220000001,0.0346959277,9.7399843933,-0.03130684345764829,0.03436116964863836,-0.19364428050877086,-0.04024993809880572,-0.44288570485619794,-0.11119318433279309
1776813872.586679,-0.4618147618,-1.2897313814,10.309476172099998,0.16798794050445423,-0.07803803417979646,0.047036623341247176,-0.023197754569582535,-0.45080721920477346,-0.1064185729446106
1776813872.6876688,-0.2739781877,-2.5471596577,9.5078806011,0.25259277599487934,0.01069014166846527,0.004276056667386108,0.0023115440509902663,-0.4497276237371555,-0.10598673475756341
1776813872.7893279,-0.16271193679999998,-0.12083754129999999,9.451649269999999,-0.7023423076181682,-0.08170322560898456,-0.1310305935934743,-0.06908791440576516,-0.4580334968126859,-0.11930718167121772
1776813872.8916812,-0.3900300838,-0.6807580296999999,10.097711372000001,-0.1351539339513109,-0.038026361077826455,-0.061697389057999555,-0.08292137020659211,-0.46192562166512197,-0.12562211516673646
1776813872.9929593,-0.263210486,-0.0023928226,10.1754781065,0.08949175739600926,-0.0557414529855689,0.017867808217291947,-0.07385781803774404,-0.4675710082549335,-0.12381249809548181
1776813873.0943696,-0.2009970984,-0.6137589969,10.0271231053,0.031001410838549282,-0.08124507668033605,0.27779096707054746,-0.07071395290671548,-0.47581010308107724,-0.095641608079024
1776813873.1955843,-0.24885355039999998,-0.1052841944,10.285547946100001,0.00992656012071775,-0.0319177086958463,0.012675453692608817,-0.06970923962526338,-0.47904064270913094,-0.0943586665042467
1776813873.297163,-0.2943171798,-0.4749752861,10.3034941156,-0.04123340357836603,-0.03390302071998985,0.015271630954950384,-0.07389767567123667,-0.4824844679024868,-0.09280739389462696
1776813873.3981595,-0.4510470601,-0.4331008906,10.1862458082,-0.09040805525330627,-0.024434609527920613,0.005039638215133627,-0.08302857230768769,-0.4849522778042303,-0.09229840810239236
1776813873.4993982,-0.2931207685,-0.4486542375,10.4075818987,0.03359758810089084,-0.0516181126277323,0.2819143074283841,-0.07962719523894664,-0.4901780298462052,-0.06375776233468333
1776813873.600636,-0.3720839143,-0.6747759731999999,10.253244840999999,0.09957103382627651,-0.02428189321837111,0.09086620418195478,-0.06954684542992441,-0.49263627466159554,-0.054558670100989734
1776813873.7020638,-0.3050848815,-0.35772697870000003,10.1252288319,0.03497203488683638,-0.01679879405044542,0.05467243881872237,-0.06599970909704939,-0.4943401392756403,-0.049013365266189476
1776813873.8032196,-0.3206382284,-0.6903293201,10.177870929100001,-0.07452555906015787,-0.02871066619530672,-0.07834346679889546,-0.0735383985070029,-0.4972443884745568,-0.05693825802706274
1776813873.9047127,-0.045463629400000004,-0.4271188341,9.9397850804,0.0836885376331281,-0.029474247743054238,0.14401147990518212,-0.06504458769818713,-0.500235821843355,-0.042322083587804954
1776813874.0059881,-0.0705882667,-0.37567314820000003,10.5427763756,0.005803219762881146,-0.08643743120501916,0.3063489169563047,-0.06445686403989326,-0.5089898110695218,-0.011296460994712251
1776813874.10728,0.5108676251000001,-0.7992027483999999,9.978070242000001,-0.04230241774521256,-0.17287486241003833,0.4628831342445461,-0.0687417560926953,-0.5265006334658102,0.035589848796056645
1776813874.2082798,-0.2213360905,-1.4189438018,10.450652705500001,-0.036499197982331415,-0.019700403931885994,0.38347065327880414,-0.07242816896264158,-0.5284903709562833,0.07432032041293996
1776813874.309799,-0.0526420972,-1.0444670649,10.144371412699998,0.059712077033856004,-0.0013744467859455344,0.1516472953826573,-0.06636625217616879,-0.5286299035677366,0.08971541854329156
1776813874.4108243,-0.3050848815,-0.4534398827,10.2197453246,0.018936822384138473,0.002748893571891069,-0.004428772976935611,-0.06445315320059301,-0.5283521956519273,0.08926800023448754
1776813874.5123012,0.10169496049999999,-0.41515472109999996,10.145567823999999,-0.00839939702522271,-0.04673119072214818,0.06536258048718764,-0.06530549803751004,-0.5330943323809565,0.09590079278358728
1776813874.6138856,-0.0394815729,-0.47736810869999996,10.228120203700001,-0.0798706298943905,-0.14569135931022667,-0.008246680715673207,-0.07341911080923148,-0.5478943067293738,0.09506305838650705
1776813874.7151778,0.2237289131,-1.052841944,9.9840522985,-0.2021963938435431,-0.20845776253507273,0.03405573702953935,-0.09390001489353947,-0.5690094382060206,0.0985126366423988
1776813874.8168473,0.6269195211999999,-0.8231309743999999,9.7770731436,0.30314187445576507,0.239153740754523,0.045356743936202634,-0.06307971694904253,-0.5446947850165585,0.10312403638522781
1776813874.9180737,0.41754754369999997,0.33738798659999997,10.3190474625,0.04260785036431157,0.002596177262341565,0.006414085001079161,-0.058766680635847966,-0.5444319835207725,0.10377331066893451
1776813875.019783,-0.1399801221,-0.7453642399,10.0701939121,0.1149953810907764,-0.030543261909900768,-0.0032070425005395805,-0.04707057335003244,-0.5475385193204579,0.10344712440996755
1776813875.120899,-0.1782652837,0.1280160091,10.255637663599998,0.05314527572322733,-0.0436768645311581,-0.04245513405476207,-0.041696738732357214,-0.551954946621191,0.099154233537227
1776813875.2268426,-0.263210486,-0.7908278692999999,10.0055877019,-0.07910704834664298,-0.04260785036431157,-0.059864793343405505,-0.05007763053307415,-0.5564689790775618,0.09281193703938714
1776813875.3283658,-0.1004985492,-0.5635097223,10.057033387799999,-0.09804387073078145,-0.11178833859023682,0.007483099167925688,-0.06003135419991152,-0.567818084566853,0.0935716449205009
1776813875.429607,-0.1423729447,0.2739781877,10.0654082669,-0.11423179954302887,-0.13775011121365247,0.09712757287348445,-0.07159630858346445,-0.5817640589705492,0.10340494838031328
1776813875.5316489,0.0801595571,-0.5431707302,9.744770038499999,0.13423763609401387,-0.06841690667817772,-0.25931229361505753,-0.057898437122536145,-0.5887454542088835,0.07694421374930499
1776813875.6329284,0.2656033086,-0.729810893,10.1312108884,0.08155050929943505,-0.12431107597329612,0.32834006553143325,-0.04963904254863971,-0.6013356174732125,0.11019833047941235
1776813875.7345464,-0.6843472636,-1.7383856189,10.502098391399999,0.014202616788103856,0.0873537290623162,0.7018841586895197,-0.04819580030402052,-0.5924589017321138,0.18152243108446411
1776813875.837357,-0.37567314820000003,-0.5599204884,10.3585290354,-0.1350012176417614,-0.1838704366976026,0.43875395733572453,-0.06207535936084203,-0.6113627355606354,0.22663099801913403
1776813875.938337,0.143569356,-1.0564311779,9.9206424996,-0.12125674978230604,-0.22082778360858255,0.3255911719595422,-0.07431987121776697,-0.6336619347358412,0.2595092086979299
1776813876.0397449,0.6448656907,-1.1772687192,9.9206424996,-0.08399397025222712,-0.13026701204572677,0.16157385550337505,-0.08283751212725542,-0.646872021455466,0.2758940524838186
1776813876.1409638,0.4749752861,-1.1210373881,9.7304131029,0.6511823439190844,0.5624541680708226,-0.01710422666954443,-0.016925526292552007,-0.5899410074242247,0.27416278081086204
1776813876.2425582,-0.3864408499,0.09690931529999999,10.201799155099998,-0.06566801310628666,-0.05360342465187585,0.002748893571891069,-0.023597031841225795,-0.5953868177674445,0.2744420531361554
1776813876.34371,0.1471585899,-0.9786644433999999,9.9314102013,0.13133602621257331,0.03924809155422248,-0.001832595714594046,-0.01031216888971523,-0.5914168063970512,0.27425668295543665
1776813876.445406,-0.2452643165,-0.4103690759,10.088140081599999,0.28817567611991374,-0.04520402762665313,-0.02076941809873252,0.01899414881994351,-0.5960138758417035,0.2721445159132991
1776813876.5464008,-0.1220339526,0.2009970984,10.1132647189,-0.05436700619962337,-0.04230241774521256,-0.11438451585257838,0.013503362523294756,-0.6002862011343206,0.2605922717105184
1776813876.6478548,-0.4522434714,-0.6807580296999999,10.0414800409,-0.2756529387368544,-0.02183843226557905,-0.1322523240698703,-0.014462736111366663,-0.6025017978682577,0.24717474183926258
1776813876.7489011,-0.5036891573,-0.6197410534,10.0067841132,-0.006261368691529657,-0.005803219762881146,-0.13469578502266238,-0.015095424399453413,-0.6030881918913625,0.23356422793456713
1776813876.8504095,-0.3266202849,-0.287138712,10.1024970172,0.08704829644321718,-0.045662176555301644,-0.0035124751196385882,-0.0062592929343104915,-0.607723285414306,0.2332076822789561
1776813876.9519806,-0.1004985492,-0.6125625856,10.0510513313,-0.06872233929727672,-0.050549098460885775,-0.0032070425005395805,-0.013239495367759719,-0.6128576120931319,0.23288193949872849
1776813877.053118,-0.11246266220000001,-0.3888336725,10.085747259,-0.05238169417547982,-0.07391469382195986,0.002901609881440573,-0.01853724370715827,-0.620333152023945,0.23317540077700422
1776813877.154534,-0.1830509289,-0.5347958510999999,10.1252288319,0.006872233929727673,-0.08536841703817265,0.10567968620825664,-0.017840288468175054,-0.6289908848815365,0.24389302356314613
1776813877.2555678,0.0765703232,-0.5611168997,10.0366943957,-0.008093964406123703,-0.060781091200702526,0.12232576394915257,-0.018658051539360503,-0.635131822661382,0.2562520465823828
1776813877.3571045,-0.34097722049999996,-0.40677984199999995,10.1898350421,-0.13377948716536536,-0.07483099167925687,0.007483099167925688,-0.03224158598894669,-0.6427299184151459,0.25701185615775923
1776813877.4583466,-0.1256231865,-0.4163511324,10.1970135099,-0.008704829644321718,-0.05726861608106394,-0.0033597588100890844,-0.03312288092135139,-0.6485279113914927,0.25667170723648025
1776813877.5597653,-0.045463629400000004,-0.3421736318,10.114461130199999,-0.0636827010821431,-0.1033889415650141,0.2704605842121713,-0.039581499817126026,-0.6590134869129302,0.2841014771751298
1776813877.6607661,-0.5754738353000001,-0.5694917788,10.2867443574,-0.08903360846736075,-0.03237585762449481,-0.07406741013150937,-0.04857396423739959,-0.6622834739748478,0.2766206105476295
1776813877.7623756,-0.0921236701,-0.6819544409999999,10.3788680275,0.02199114857512855,-0.022602013813326566,0.2700024352835228,-0.04633945531985407,-0.6645800525845473,0.3040554144797162
1776813877.8635693,-0.2177468566,-0.7226324252,10.2197453246,-0.14966198335851374,-0.23976460599272104,0.5508477285450604,-0.061484300145297696,-0.6888427121518397,0.35979771579132347
1776813877.9650426,0.5228317381,-1.7575281996999998,9.6454679006,0.06276640322484607,0.012370021073509811,0.45387287198112536,-0.055115184106849666,-0.6875874849033864,0.4058537081666703
1776813878.066325,0.4043870194,-0.7250252478,9.932606612599999,0.3107776899332403,-0.1033889415650141,0.05375614096142535,-0.023638886803924113,-0.6980589607137454,0.4112982568893385
1776813878.1677535,-0.0586241537,-0.1411765334,10.0989077833,-0.20448713848678565,-0.03237585762449481,-0.02183843226557905,-0.04437971232094084,-0.7013427956723769,0.4090832172710163
1776813878.2693312,-0.0705882667,-1.0492527101,9.9146604431,0.14630222454842468,-0.0517708289372818,-0.04902193536539073,-0.029518660245457698,-0.7066015604464779,0.40410367894509763
1776813878.3703291,-0.17228322719999997,-0.4331008906,10.110871896299999,0.049174651674940235,-0.0024434609527920616,-0.14813482026301875,-0.024552122473295385,-0.7068483449320512,0.38914236950721737
1776813878.4717734,-0.23928226,0.12323036389999999,10.2041919777,0.09850201965942997,-0.01679879405044542,-0.11255192013798433,-0.014559659518571183,-0.7085524859010739,0.37772462501476506
1776813878.5731456,-0.2919243572,0.1040877831,10.1838529856,-0.13607023180860792,-0.047189339650796684,-0.006566801310628665,-0.028353403982914915,-0.7133361750587419,0.3770589336433096
1776813878.6747625,-0.28953153460000003,-0.3720839143,10.1611211709,-0.12247848025870207,-0.06017022596250451,-0.0079412480965742,-0.04079928249530265,-0.7194504844526082,0.37625196895173335
1776813878.7769275,-0.2285145583,-0.5479563754,10.0953185494,-0.1311833099030238,-0.05436700619962337,0.017256942979093935,-0.05420162321973623,-0.7250048887574957,0.3780150242507566
1776813878.8815334,-0.11246266220000001,-0.9343972253,9.9673025403,0.06246097060574707,-0.0716239491787173,0.12476922490194463,-0.04766783635252276,-0.7324971773656207,0.39106662295616834
1776813878.9825897,-0.1411765334,-0.2691925425,10.1192467754,-0.05085453107998478,-0.0436768645311581,0.02703078679026218,-0.052807009001451743,-0.7369110013223585,0.3937982552650585
1776813879.0852838,-0.8183453291999999,-0.299102825,9.511469835,-0.11041389180429127,-0.11728612573401895,0.3025310092175671,-0.06414585702411829,-0.7489555867738218,0.4248663851860854
1776813879.1862774,-0.1328016543,-0.5407779076,10.2388879054,-0.020311269170084013,-0.0879645943005142,0.45585818400526895,-0.06619716589393537,-0.7578394507513755,0.4709051594447619
1776813879.2891371,-0.0897308475,-0.59820565,10.0271231053,-0.024129176908821607,-0.07070765132142026,0.39584067435231396,-0.06867908664834144,-0.7651124210633375,0.5116212265043854
1776813879.3917713,-0.5096712138,-0.9774680320999999,10.4219388343,0.05345070834232634,-0.06154467274845005,0.42256602852347713,-0.06319321641182632,-0.7714290087928106,0.5549909492027777
1776813879.4927669,-0.0263210486,-0.5012963347,9.5928258034,0.01557706357404939,-0.05543602036646989,0.5093088923475952,-0.06162000245491028,-0.7770277996394824,0.6064288761274345
1776813879.5955873,-0.39361931769999997,-0.873380249,10.253244840999999,0.01710422666954443,-0.05635231822376691,0.5609270049753277,-0.059861339088233066,-0.7828219673386243,0.6641036131435544
1776813879.6979737,-0.12442677519999999,-0.5300102059,9.9696953629,-0.04657847441259867,-0.0956004097779894,0.29596420790693845,-0.06463034487602203,-0.7926101562670043,0.694406345001702
1776813879.7995934,0.12083754129999999,-0.9511469834999999,9.8775716928,0.0033597588100890844,-0.06734789251133119,0.048411070127192715,-0.06428892712493116,-0.7994540302775075,0.6993258644151475
1776813879.9007308,-0.5084748025,-0.48693939909999995,10.063015444300001,0.2675589743307307,0.05742133239061344,-0.02336559536107409,-0.03722870820182251,-0.7936465860337353,0.6969627288585062
1776813880.0030065,0.023928226,-0.0777667345,10.0965149607,0.5303837430654269,-0.05070181477043527,-0.007788531787024695,0.017016612638414988,-0.7988321450659722,0.6961661520192168
1776813880.1040952,-0.2165504453,0.08853443620000001,10.0965149607,0.11804970728176646,-0.035735616434583894,-0.1230893454969001,0.028950111435437603,-0.802444614300776,0.6837232024326706
1776813880.2056308,-0.5527420206,-0.8315058535,10.1611211709,0.13408491978446438,-0.04642575810304917,-0.024740042147019622,0.04256449867907317,-0.8071584795878661,0.6812112084309975
1776813880.3070571,-0.17228322719999997,0.30747770409999997,10.1611211709,-0.3860668305411457,-0.030695978219450273,-0.002748893571891069,0.0034071441856934753,-0.8102718610171261,0.6809323981537503
1776813880.4084709,-0.1962114532,-0.0538385085,10.090532904199998,-0.27305676147451285,-0.02504547476611863,0.04596760917440065,-0.024284559625188804,-0.8128118159527998,0.6855941447125173
1776813880.5147505,0.1172483074,-0.5431707302,10.3573326241,0.037568212149177944,-0.030695978219450273,-0.002138028333693054,-0.020291824629936457,-0.8160741725952622,0.6853669158916493
1776813880.6202786,0.0897308475,-0.2213360905,10.305886938199999,-0.03283400655314333,-0.09407324668249435,0.17821993324427096,-0.023756735489648257,-0.826001545104948,0.7041741297208757
1776813880.7214172,-0.0167497582,-0.4510470601,10.1623175822,-0.0198531202414355,-0.02626720524251466,0.4778493325803975,-0.02576465211303521,-0.8286581732528139,0.7525031382945508
1776813880.8230984,-0.06340979890000001,-0.08135596839999999,10.359725446699999,0.012828170002158322,-0.0833831050140291,0.7889324551327368,-0.024460267977106938,-0.8371366701363476,0.8327227626541395
1776813880.9546232,0.0945164927,-0.9056833541,10.0953185494,0.14584407561977614,-0.02626720524251466,0.7417431154819402,-0.005278154917102797,-0.8405914590853746,0.9302803784996265
1776813881.0577953,-0.5036891573,-0.9044869428,10.1623175822,-0.06444628262989062,-0.061086523819801536,0.4343251843587889,-0.011927210902039919,-0.8468938818199121,0.9750906041421885
1776813881.158881,-0.1950150419,-0.9774680320999999,9.744770038499999,0.05360342465187585,-0.0079412480965742,-0.009621127501618741,-0.006508673190514734,-0.8476966281475454,0.974118046091402
1776813881.2606497,-0.24765713909999998,-0.34576286570000003,10.1324072997,0.1795943800302165,-0.036193765363232405,-0.008246680715673207,0.011768419152223866,-0.8513800217574341,0.9732787918511742
1776813881.3617678,-0.25363919560000003,-0.33858439789999994,10.073783146,0.09789115442123195,-0.03420845333908886,-0.0030543261909900766,0.021666985496755137,-0.8548391151446026,0.9729699442273199
1776813881.4632087,-0.2117648001,-0.2763710103,10.060622621699999,0.2229658119422756,-0.050396382151336266,-0.004734205596034618,0.04428483958418604,-0.8599513698355973,0.972489702119984
1776813881.5643747,-0.1698904046,0.3888336725,10.1503534692,0.12553280644969214,-0.05665775084286592,-0.047342055960346185,0.056984492724621215,-0.8656832084184457,0.9677002952178734
1776813881.6659396,-0.2237289131,0.3146561719,10.109675485,-0.0557414529855689,-0.03512475119638588,0.001832595714594046,0.051323118507794196,-0.8692506497057614,0.9678864225893855
1776813881.7676754,-0.19381863059999999,-0.0263210486,10.1240324206,-0.0798706298943905,-0.049480084294039245,-0.002138028333693054,0.04319741365834474,-0.8742845471650762,0.9676689085016373
1776813881.8687863,-0.215354034,0.0071784678,10.1228360093,-0.06032294227205401,-0.037415495839628436,-0.0006108652381980154,0.037098104550527235,-0.8780676629408111,0.9676071433461151
1776813881.9704237,-0.20458633229999998,-0.2261217357,10.0761759686,-0.03359758810089084,-0.0439822971502571,-0.00015271630954950385,0.033683334278216605,-0.8825379076609268,0.9675916216630591
1776813882.0716386,-0.20937197749999997,0.179461695,10.114461130199999,-0.08109236037078654,-0.05742133239061344,0.0030543261909900766,0.025475580291197893,-0.8883498012562545,0.9679007649394064
1776813882.1729672,-0.1591227029,-0.574277424,10.086943670299998,-0.3953825254236654,-0.04291328298341058,0.016493361431346415,-0.01458798197148838,-0.8926981446304588,0.9695720143501325
1776813882.2740188,-0.1148554848,-0.7214360139,10.1383893562,-0.05115996369908379,-0.0879645943005142,0.030390545600351263,-0.01975777657249569,-0.9015871048996534,0.9726430266653577
1776813882.3754733,-0.1136590735,-0.5419743189,10.116853952800001,0.016493361431346415,-0.04184426881656405,-0.0015271630954950383,-0.018084450894804642,-0.9058323941189808,0.9724880891026085
1776813882.4766288,-0.31345976059999997,-0.40917266459999996,10.228120203700001,-0.04444044607890562,-0.08261952346628157,0.06658431096358366,-0.02257984730408252,-0.9141898149348547,0.9792234596677122
1776813882.5780258,-0.1591227029,-0.7322037156,10.110871896299999,-0.03344487179134134,-0.0635299847725936,0.23961188968317151,-0.02597105822349598,-0.9206315671836036,1.003519395432825
1776813882.6793373,-0.155533469,-0.526420972,10.254441252300001,-0.0033597588100890844,-0.09865473596897947,0.07376197751241036,-0.026311440244191183,-0.9306264210640173,1.010992327978088
1776813882.7807384,-0.1519442351,-0.35174492220000003,10.201799155099998,-0.10827586347059823,-0.13713924597545443,0.21594086170299842,-0.03729073088814301,-0.944532490173,1.0328889668646153
1776813882.8827136,0.17706887240000002,-0.7453642399,10.0175518149,-0.006719517620178169,-0.05406157358052436,1.0007499764778987,-0.03797595505856902,-0.9500454300896093,1.1349406484282893
1776813882.983774,0.3900300838,-0.8123632727,9.9050891527,0.04092797095926703,-0.1351539339513109,0.9477574170642208,-0.03383975833218195,-0.9637041394286113,1.2307213830699242
1776813883.0850096,-0.1100698396,-0.8949156524,9.9290173787,-0.11698069311491993,-0.08567384965727166,0.1945605783660679,-0.04568237227852573,-0.9723773854128135,1.25041784542977
1776813883.1864974,-0.08135596839999999,-0.7094719009,10.114461130199999,-0.014202616788103856,-0.01710422666954443,0.022449297503777062,-0.047123765675573,-0.9741132570307629,1.2526961769283287
1776813883.2880654,0.16271193679999998,-0.7334001269,9.9146604431,-0.01511891464540088,-0.10002918275492502,0.2744312082604584,-0.04865936335073991,-0.9842730194270692,1.2805696013957524
1776813883.3891873,-0.0287138712,-1.3531411803,10.0701939121,0.10965031025654375,0.14156801895239005,-0.010537425358915765,-0.03757131537163076,-0.9699573920222863,1.2795040368963673
1776813883.4907172,-0.2799602442,-0.5838487144,10.1240324206,0.18127425943526107,-0.04199698512611356,-0.028099800957108706,-0.019166569421473687,-0.9742213390621289,1.2766510686951635
1776813883.5917954,-0.0729810893,-0.5946164161,10.0008020567,0.3226895620781016,-0.015729779883598895,-0.12339477811599911,0.013450333862527048,-0.9758112780295932,1.264178537765929
1776813883.6932414,-0.23688943739999999,0.6496513358999999,10.1120683076,0.5769622174780255,-0.029321531433504737,-0.036041049053682904,0.07198079296272876,-0.9787858275656542,1.260522320627854
1776813883.794526,-0.11964113,0.1100698396,9.9792666533,-0.03252857393404432,-0.006414085001079161,0.005497787143782138,0.06868614473263224,-0.9794354765124338,1.2610791625822364
1776813883.8959975,-0.0933200814,-0.442672181,9.964909717700001,0.02076941809873252,-0.03329215548179183,-0.014049900478554353,0.07079364716489675,-0.9828136789406224,1.259653499172175
1776813883.997081,-0.0526420972,-0.5300102059,10.0965149607,-0.26053402409145354,-0.028252517266658207,-0.018478673455489966,0.04445795169213798,-0.9856695427521467,1.2577856098684215
1776813884.0984116,-0.3062812928,-0.3672982691,10.2233345585,-0.07467827536970736,-0.017409659288643436,-0.0035124751196385882,0.036890763311621284,-0.9874336725586476,1.2574296889425485
1776813884.2046149,-0.3361915753,-1.0001998468,9.9254281448,-0.13332133823671685,-0.05803219762881146,0.029321531433504737,0.02273159487838247,-0.9935968844768959,1.2605437328591371
1776813884.3056889,-0.1507478238,-0.6005984726,10.0929257268,-0.048869219055841226,-0.0436768645311581,0.01389718416900485,0.017792188392720475,-0.9980114790234563,1.2619483765784973
1776813884.4082417,-0.263210486,-0.8506484343,10.325029519,-0.04871650274629172,-0.1195768703772615,0.4024074756629426,0.01279617020751396,-1.0102744327507813,1.303216426478244
1776813884.5124798,-0.6771687957999999,-0.4534398827,9.966106129,-0.012217304763960306,-0.08093964406123703,0.4740314248416599,0.01152266238675704,-1.018711422063296,1.3526285299236125
1776813884.615954,0.0526420972,-0.6424728680999999,10.04985492,-0.01557706357404939,-0.08109236037078654,0.7463246047684252,0.009910839127101903,-1.0271023843267948,1.4298538266876777
1776813884.7187533,-0.1172483074,-0.5228317381,9.6454679006,-0.09636399132573692,-0.10613783513690517,0.6586654430870101,4.677135052533199e-06,-1.0380132917506844,1.497564249305283
1776813884.82198,-0.2069791549,-0.8159525066,9.9349994352,0.06032294227205401,-0.06979135346412325,0.5047274030611102,0.006231613088640444,-1.0452176201830632,1.5496655741827716
1776813884.9237702,-0.010767701699999998,-0.2739781877,10.013962581,0.040011673101970006,-0.09804387073078145,0.2690861374262258,0.010304408885626542,-1.0551975243878917,1.5770559031686093
1776813885.0291426,0.0610169763,-1.2011969452,10.1276216545,0.0013744467859455344,0.0035124751196385882,-0.03466660226773737,0.010449237681847233,-1.0548274063531056,1.573402999086154
1776813885.130327,-0.051445685899999996,-0.8578269021,10.0055877019,0.30161471136027007,-0.036804630601430424,-0.057879481319261954,0.04096793167061769,-1.0585514596449,1.5675465003409672
1776813885.2315085,-0.1112662509,-0.2380858487,10.013962581,0.5328272040182188,-0.03451388595818787,-0.02199114857512855,0.09488019120270592,-1.0620436266423927,1.5653214027850426
1776813885.332627,-0.0705882667,0.0370887503,10.085747259,0.10812314716104872,-0.02199114857512855,-0.02229658119422756,0.10581344864428344,-1.0642673400203406,1.5630668044990677
1776813885.4340923,-0.1363908882,0.0334995164,10.0929257268,0.05238169417547982,-0.05253441048502932,-0.02138028333693054,0.11112836904118933,-1.0695977558119898,1.5608974492350245
1776813885.5355277,0.0035892339,0.215354034,10.0809616138,0.015424347264499889,-0.0319177086958463,-0.08200865822808356,0.1126929442288793,-1.0728353420914671,1.5525788663064155
1776813885.636651,-0.33260234139999995,0.6005984726,10.1324072997,-0.1751656070532809,-0.04138611988791554,0.006719517620178169,0.09497961422066037,-1.077020444473531,1.5532583663241677
1776813885.7380917,-0.1148554848,-0.3529413335,10.1647104048,-0.35720344803628945,-0.030848694528999777,0.017867808217291947,0.05874465780206406,-1.080149756656753,1.555070888727321
1776813885.8393562,-0.28953153460000003,-0.5970092387,9.9026963301,-0.04459316238845512,-0.048411070127192715,0.13652838073725643,0.05422895454500446,-1.0850520783433555,1.5688963637677706
1776813885.9407012,-0.0263210486,-0.5180460929,10.1288180658,-0.04199698512611356,-0.09789115442123195,-0.00198531202414355,0.04997276747284008,-1.0949728634824731,1.5686951621970866
1776813886.0424714,-0.1304088317,-0.6053841178,10.013962581,-0.07055493501187078,-0.05375614096142535,0.0039706240482871,0.0427923802656915,-1.1004436346879196,1.5690992532520343
1776813886.1434925,-0.24287149389999999,-0.16749758199999998,10.3573326241,0.036804630601430424,-0.07757988525114795,0.23182335789614683,0.04651042274568911,-1.1082808362640142,1.592518292607372
1776813886.2449708,0.2237289131,-0.3900300838,10.1659068161,-0.06765332513043021,-0.07376197751241036,0.046883907031697675,0.03964507573493592,-1.1157660791673862,1.5972759935832213
1776813886.346212,-0.1292124204,-0.6675975054,9.978070242000001,0.01557706357404939,-0.03512475119638588,0.2947424774305424,0.041222114969056776,-1.119322148028639,1.6271160496798218
1776813886.447716,0.215354034,-0.3924229064,10.5690974242,0.12232576394915257,-0.04810563750809371,0.33383785267521543,0.05363868001010966,-1.124205066865008,1.6610019562712595
1776813886.5489943,0.08853443620000001,-0.753739119,10.133603711,-0.040011673101970006,-0.07788531787024697,0.14049900478554353,0.04958636557597898,-1.1320931598474762,1.6752314573376725
1776813886.6506689,-0.1639083481,-0.6735795618999999,9.8333044747,-0.04581489286485115,-0.06307183584394509,0.579252962121268,0.04492815665221303,-1.1385059607991939,1.7341267454971534
1776813886.7519255,-0.062213387599999996,-0.49651068949999994,10.1491570579,0.0007635815477475192,-0.06505714786808864,0.6519459254668318,0.04500547433040467,-1.1450934269811217,1.8001405791371778
1776813886.853387,-0.0705882667,-0.3613162126,9.8715896363,0.2031126917008401,-0.006566801310628665,0.7092145415478958,0.065613622951225,-1.1457597054703663,1.872098655975591
1776813886.9548025,0.0071784678,-0.7274180704000001,10.1802637517,0.025198191075668133,-0.05772676500971245,0.558330827712986,0.06816910747101272,-1.1516140881884254,1.9287219978200996
1776813887.0568044,-0.131605243,-0.6520441585,10.2364950828,0.04214970143566306,-0.07544185691745489,0.38805214256528925,0.07246845733123158,-1.1593093013440345,1.968304055772332
1776813887.1578734,-0.0191425808,-0.8566304908000001,9.870393225,-0.017256942979093935,-0.04642575810304917,0.17730363538697394,0.07072431581787451,-1.1640015050613846,1.9862239522060272
1776813887.2593374,-0.0981057266,-0.7429714173,10.048658508699999,0.048869219055841226,-0.006414085001079161,0.01634064512179691,0.07568278387903875,-1.1646523039944123,1.987881939963979
1776813887.3608737,-0.0490528633,-0.6388836341999999,10.0558369765,0.15851952931238497,-0.023671027980173093,-0.01389718416900485,0.09177826623472461,-1.1670557719762344,1.986470871664974
1776813887.4624119,-0.0705882667,-0.2524427843,10.073783146,0.07009678608322227,-0.02748893571891069,-0.020616701789183015,0.09889576640893584,-1.1698469485151408,1.9843774892607942
1776813887.5638375,-0.071784678,-0.4271188341,10.110871896299999,0.027947084647559205,-0.0158824961931484,0.004123340357836604,0.10173031757163606,-1.171457840979189,1.984795701727422
1776813887.664876,-0.1531406464,-0.502492746,10.1024970172,0.11407908323347936,-0.026572637861613665,0.00015271630954950385,0.11325669199923674,-1.1741426992795938,1.9848111319475392
1776813887.7663655,-0.25363919560000003,0.3625126239,10.114461130199999,0.08231409084718257,-0.02580905631386615,-0.012675453692608817,0.1216107115370783,-1.1767620486337593,1.9835247059333632
1776813887.8675165,-0.12681959780000002,0.1304088317,10.1395857675,-0.12156218240140505,-0.037568212149177944,0.0039706240482871,0.10931457649744948,-1.1805621104676145,1.9839263384849088
1776813887.9688673,0.045463629400000004,-0.33858439789999994,10.097711372000001,-0.2464841236128992,-0.06459899893944013,0.03130684345764829,0.08433321725135072,-1.1871092696752352,1.987099311623354
1776813888.0700657,-0.10169496049999999,-0.382851616,9.923035322199999,-0.10766499823240021,-0.09132435311060329,0.11972958668681101,0.07343768794428812,-1.1963511512718643,1.9992157583988674
1776813888.1717765,0.191425808,-0.6723831506,10.1491570579,-0.037110063220529434,-0.1235474944255486,0.3853032489933982,0.0696631938612991,-1.2089172653177003,2.0384052586926176
1776813888.2730412,-0.1172483074,-0.48933222169999996,10.719845247999999,0.07299839596466283,0.05513058774737088,0.26053402409145354,0.07705535563833077,-1.2033344820509462,2.0647881624407685
1776813888.3744678,-0.20458633229999998,-1.0803594039,10.3202438738,-0.037568212149177944,-0.09208793465835081,0.2072360320586767,0.07324493955899308,-1.2126746482942008,2.0858074088621557
1776813888.4763799,0.2656033086,-0.0071784678,10.137192944899999,0.04428772976935611,-0.004428772976935611,0.10140362954087054,0.07775839163349967,-1.2131259935016514,2.0961416577499916
1776813888.577466,0.0023928226,-0.6245266986,10.0845508477,-0.035430183815484885,-0.04871650274629172,0.013744467859455345,0.0741768911234765,-1.2180505567029332,2.0975310329478454
1776813888.678745,-0.0669990328,-0.4941178669,10.1192467754,-0.0316122760767473,-0.044898595007554123,0.005497787143782138,0.07097523077267173,-1.2225978424185688,2.0980878434436376
1776813888.7798162,-0.023928226,-0.1363908882,9.9684989516,-0.04810563750809371,-0.09086620418195478,0.10919216132789523,0.0661131401446811,-1.231781791382551,2.1091240174087593
1776813888.8813128,0.287138712,-0.7561319416,9.906285564,-0.03787364476827695,-0.047647488579445195,0.07147123286916779,0.062269090317340584,-1.2366178540685602,2.116378111437773
1776813888.982327,0.131605243,-1.4261222696,10.205388389000001,0.037262779530078935,-0.013744467859455345,-0.14019357216644454,0.06603315784378168,-1.2380062396315916,2.102216578694851
1776813889.0838513,0.1052841944,-0.8781658942,10.097711372000001,-0.01511891464540088,-0.060781091200702526,-0.014049900478554353,0.06449821981593172,-1.244177000592039,2.100790171638667
1776813889.1848845,0.1256231865,-0.6017948839,10.1563355257,-0.001832595714594046,-0.08353582132357859,0.008704829644321718,0.06431306678687154,-1.2526168928333654,2.1016696485267032
1776813889.2865016,0.16869399329999998,-0.9320044027,9.9948200002,-0.05482515512827187,-0.0681114740590787,0.0317649923862968,0.058741893633307535,-1.259538183157849,2.1048975148663724
1776813889.3876634,0.28953153460000003,-0.7214360139,10.1395857675,-0.14080443740464255,-0.20357084062948863,0.04077525464971753,0.044497874791539736,-1.2801317592056543,2.1090224096936523
1776813889.4891915,0.36370903520000003,-0.9427721043999999,10.0761759686,-0.18188512467345908,-0.2428189321837111,0.10125091323132103,0.026031411347081295,-1.3047847204791125,2.1193022293944717
1776813889.5902438,0.6652046827999999,-1.4644074312,9.8380901199,0.12873984895023172,0.08720101275276669,0.02580905631386615,0.03904086715630781,-1.2959728589523412,2.121910293489085
1776813889.691921,0.16271193679999998,-0.7908278692999999,10.2077812116,0.19058995431778078,0.06643159465403417,0.019700403931885994,0.05841951612122127,-1.28921828178909,2.12391337499267
1776813889.793285,0.1639083481,-0.5934200048,10.0929257268,0.10659598406555368,0.057574048700162944,0.029321531433504737,0.06922450050515105,-1.2833823518281422,2.126885519694267
1776813889.89445,0.0502492746,-0.6652046827999999,10.0163554036,0.04016438941151951,0.04046982203061852,0.005497787143782138,0.07328773321835633,-1.2792882200068516,2.127441703639801
1776813889.9959562,-0.041874395499999995,-0.6927221427000001,10.0654082669,0.03420845333908886,-0.020463985479633514,0.005803219762881146,0.07676010446092968,-1.2813654420894625,2.1280307666184517
1776813890.0973997,-0.0729810893,-0.6556333924,10.085747259,0.005345070834232635,-0.04627304179349966,-0.0015271630954950383,0.07730232730979887,-1.28605954275253,2.127875845804489
1776813890.1989493,-0.040677984199999996,-0.6281159325,10.086943670299998,0.01710422666954443,-0.04245513405476207,0.0013744467859455344,0.07903925512079184,-1.2903708457119591,2.1280154203607298
1776813890.3000305,-0.1004985492,-0.49292145559999995,10.144371412699998,0.023976460599272102,-0.04505131131710363,0.0006108652381980154,0.08146282292082979,-1.2949246832980177,2.1280771673110492
1776813890.401472,-0.0729810893,-0.5479563754,10.110871896299999,0.003665191429188092,-0.03558290012503439,0.0016798794050445422,0.08183462588354223,-1.298534270394351,2.1282475770022926
1776813890.5084984,-0.0346959277,-0.5694917788,10.094122138100001,0.013439035240356337,-0.04123340357836603,0.002748893571891069,0.08327295661932849,-1.3029473306064223,2.128541781016431
1776813890.610023,-0.18783657410000001,-0.5694917788,10.085747259,0.004428772976935611,-0.036499197982331415,0.0013744467859455344,0.08372258598641862,-1.3066528967696824,2.128681321164838
1776813890.711279,-0.035892339,-0.4749752861,10.121639598,-0.0319177086958463,-0.04123340357836603,-0.00916297857297023,0.08049072986733222,-1.3108280218996027,2.1277535155804115
1776813890.812621,-0.1351944769,-0.7465606512,10.052247742599999,-0.06261368691529658,-0.037415495839628436,-0.021685715956029545,0.0741453210080278,-1.3146197906082113,2.1255558373901158
1776813890.9139984,-0.11964113,-0.2703889538,10.013962581,0.02199114857512855,-0.03497203488683638,-0.013286318930806833,0.07637472314773552,-1.3181651592887187,2.124208906930709
1776813891.0150387,0.0502492746,-0.4199403663,10.1898350421,-0.008246680715673207,-0.060781091200702526,-0.006108652381980153,0.07554147553210776,-1.3243065028261234,2.1235916864746884
1776813891.116149,-0.010767701699999998,-0.6951149653,10.0678010895,-0.017409659288643436,-0.03940080786377199,-0.007788531787024695,0.07378118105208367,-1.3282903271756517,2.1228041863125724
1776813891.2171957,-0.0777667345,-0.71784678,10.0749795573,0.00839939702522271,-0.05085453107998478,-0.000916297857297023,0.07462991324856416,-1.333429014837979,2.122711597345684
1776813891.3183925,-0.0179461695,-0.6400800455,10.086943670299998,0.07101308394051928,-0.03390302071998985,0.00839939702522271,0.08181620767990566,-1.3368598908890712,2.1235615891601434
1776813891.419722,-0.16271193679999998,-0.5252245607,10.114461130199999,0.04199698512611356,-0.0319177086958463,0.0035124751196385882,0.08607174391607122,-1.340094098428557,2.1239175067362592
1776813891.521082,-0.0681954441,-0.5491527867,10.1024970172,0.04153883619746504,-0.028252517266658207,0.006261368691529657,0.0902821138816181,-1.3429577691771826,2.12455215809136
1776813891.622263,-0.0777667345,-0.490528633,10.114461130199999,0.03237585762449481,-0.038637226316024474,0.00839939702522271,0.0935579365120506,-1.3468671235427458,2.1254020177360475
1776813891.7234573,-0.0981057266,-0.5431707302,10.0761759686,0.0277943683380097,-0.035430183815484885,0.005345070834232635,0.09637057043114299,-1.3504524590879625,2.1259429088743347
1776813891.824492,-0.0693918554,-0.5204389155,10.086943670299998,0.05253441048502932,-0.04581489286485115,0.013744467859455345,0.10167836574861183,-1.3550813503531969,2.127331576253905
1776813891.9256246,-0.12323036389999999,-0.32303105099999996,10.0989077833,0.07070765132142026,-0.04413501345980661,0.04214970143566306,0.10882921657992291,-1.359544840396931,2.1315942864686823
1776813892.0268679,-0.0502492746,-0.2584248408,10.120443186700001,-0.015271630954950384,-0.037262779530078935,-0.00717766654882668,0.10728306691436101,-1.363317445580902,2.130867596125868
1776813892.1280117,-0.1351944769,-0.4618147618,10.0809616138,-0.024129176908821607,-0.038331793696925465,-0.022449297503777062,0.10484254937875187,-1.367194470273547,2.1285969880389404
1776813892.229698,-0.12442677519999999,-0.33260234139999995,10.1024970172,-0.0030543261909900766,-0.0438295808407076,-0.00839939702522271,0.10453196643497005,-1.371651335516816,2.1277428849435402
1776813892.3307226,-0.059820565,-0.4570291166,10.0953185494,-0.045356743936202634,-0.0320704250053958,-0.014049900478554353,0.0999498182657865,-1.3748912382627034,2.1263234989786755
1776813892.4323602,-0.0753739119,-0.48095734259999995,10.088140081599999,0.010079276430267254,-0.047189339650796684,-0.0013744467859455344,0.10097425175056646,-1.3796874495778095,2.126183803503478
1776813892.5333993,-0.0658026215,-0.4211367776,10.110871896299999,0.010537425358915765,-0.04352414822160859,-0.0007635815477475192,0.10203894447561203,-1.3840850934421283,2.1261066518567358
1776813892.6348255,-0.0574277424,-0.42831524540000004,10.1252288319,0.00839939702522271,-0.047647488579445195,-0.0030543261909900766,0.10289086276462829,-1.388917793554366,2.1257968633880027
1776813892.73656,-0.0370887503,-0.3900300838,10.118050364099998,-0.004886921905584123,-0.037110063220529434,-0.0006108652381980154,0.10239369353258307,-1.3926931724102094,2.125734717233997
1776813892.8376036,-0.0777667345,-0.5096712138,10.057033387799999,0.012675453692608817,-0.024892758456569127,0.009010262263420726,0.10367446526565331,-1.3952084229221426,2.1266451453334083
1776813892.9387434,-0.2237289131,-0.15672988029999999,9.9912307663,0.11438451585257838,-0.04642575810304917,0.03145955976719779,0.11524329047582837,-1.399903914062187,2.12982695840857
1776813893.0397704,-0.0538385085,-0.2703889538,10.116853952800001,-0.06505714786808864,-0.05589416929511841,-0.0039706240482871,0.1086707612258436,-1.4055507349671035,2.129425818125707
1776813893.1412332,-0.0981057266,-0.7142575461,10.021141048799999,-0.01069014166846527,-0.012064588454410803,-0.0079412480965742,0.10758610908110586,-1.4067748423875932,2.1286200765324734
1776813893.2423637,-0.09092725880000001,-0.6747759731999999,10.1312108884,0.16951510359994926,-0.09804387073078145,-0.008857545953871221,0.12472925381362826,-1.4166900666382953,2.127724308609513
1776813893.3433342,0.6484549246,0.0646062102,10.2867443574,0.4137084825696059,-0.09330966513474685,0.08078692775168753,0.1665016089115684,-1.4261115908039805,2.135881405636759
1776813893.444532,-0.0287138712,0.040677984199999996,10.1324072997,-0.18157969205436006,-0.04642575810304917,-0.038789942625573975,0.1481261581547226,-1.430809771653502,2.131955951900646
1776813893.5456295,-0.035892339,-0.062213387599999996,10.1156575415,0.049480084294039245,-0.04214970143566306,0.020311269170084013,0.15312847512162311,-1.4350710046253061,2.1340093721370588
1776813893.6467884,-0.1112662509,-0.1399801221,10.106086251099999,-0.01389718416900485,-0.03955352417332149,-0.005650503453331642,0.15172265185076547,-1.4390721939346702,2.1334377736642924
1776813893.7479863,-0.10289137179999999,-0.16271193679999998,10.0989077833,-0.011606439525762293,-0.03940080786377199,-0.004734205596034618,0.15054810387119427,-1.443059475233741,2.1329586817252566
1776813893.8490338,-0.1004985492,-0.16869399329999998,10.1001041946,-0.006566801310628665,-0.04046982203061852,-0.004276056667386108,0.14988454491154904,-1.447148850217601,2.1325265968213016
1776813893.9501393,-0.0873380249,-0.1806581063,10.1048898398,-0.0004581489286485115,-0.04199698512611356,-0.002596177262341565,0.14983822355722537,-1.4513949743639376,2.1322641091468006
1776813894.0541153,-0.08374879099999999,-0.1710868159,10.0917293155,0.006414085001079161,-0.04276056667386108,-0.0003054326190990077,0.15050513453162437,-1.4558410475265977,2.132232351481353
1776813894.1552262,-0.09690931529999999,-0.14476576730000001,10.0953185494,0.011911872144861299,-0.04352414822160859,0.001832595714594046,0.1517095550643073,-1.4602418148575547,2.1324176469479195
1776813894.257319,0.7094719009,0.1830509289,10.1754781065,0.3006984135029731,-0.06093380751025203,-0.1345430687131129,0.1824086808904947,-1.4664627144028308,2.118681776022134
1776813894.3583188,-0.442672181,-0.2931207685,10.0582297991,-0.13026701204572677,0.05436700619962337,-0.15760323145508795,0.16925173453876174,-1.4609716559019903,2.1027638760983494
1776813894.4595876,-0.11964113,-0.3661018578,10.1862458082,0.1154535300194249,-0.08827002691961322,-0.029168815123955232,0.18094357132093367,-1.4699106528068784,2.0998099861176684
1776813894.561599,-0.37567314820000003,0.4007977855,10.2185489133,-0.06230825429619756,-0.016493361431346415,-0.22449297503777066,0.17458741644018322,-1.4715931643929594,2.076909133973788
1776813894.663813,0.4701896409,0.46540399569999996,10.4015998422,-0.05742133239061344,-0.09224065096790032,-0.05360342465187585,0.16871814674525729,-1.4810214593284254,2.0714301082745354
1776813894.7648566,-0.1603191142,0.1220339526,9.7686982645,0.04352414822160859,-0.06123924012935104,-0.007635815477475192,0.17311597739495632,-1.4872092842074756,2.070658559037746
1776813894.8658745,-0.0574277424,0.0299102825,9.9003035075,-0.026114488932965158,-0.005345070834232635,0.031001410838549282,0.17047794520632686,-1.4877492323162593,2.0737902580686924
1776813894.9670126,-0.33499516399999996,0.32901310749999996,10.1826565743,0.028557949885757217,-0.10995574287564276,-0.001832595714594046,0.17336624242401488,-1.4988699488763415,2.073604912792691
1776813895.0684397,-0.2560320182,0.16630117069999997,10.116853952800001,0.07131851655961828,-0.02107485071783153,-0.12492194121149414,0.18059987118357226,-1.5010075094091444,2.060934445286657
1776813895.169628,0.051445685899999996,1.064806057,10.222138147199999,0.11881328882951399,-0.0358883327441334,-0.16035212502697901,0.19262237197638302,-1.5046389845843506,2.044708705142118
1776813895.2713048,0.2739781877,0.9750752094999999,10.085747259,-0.08200865822808356,-0.010079276430267254,-0.3029891581462156,0.18428398247896427,-1.505663814578447,2.0139016944105
1776813895.3723633,-0.191425808,0.3553341561,10.109675485,-0.014508049407202865,-0.04444044607890562,-0.0035124751196385882,0.1828178210127875,-1.5101548986485251,2.013546729002899
1776813895.4734557,-0.0466600407,-0.23688943739999999,9.9529456047,-0.07284567965511334,-0.10445795573186063,0.02183843226557905,0.17545368090231295,-1.520714797674866,2.0157544271911547
1776813895.5748432,-0.263210486,0.4235296002,10.225727381099999,-0.139124557999598,-0.023518311670623588,-0.059406644414756994,0.16134818967198508,-1.5230992605173144,2.00973133598523
1776813895.675954,0.5120640364,-0.6951149653,9.9026963301,-0.6007859617677481,-0.3219259805303541,0.5065599987757042,0.10060215921589885,-1.555649497477515,2.060950091202016
1776813895.7771664,-0.394815729,-0.6759723845,9.7256274577,-0.05665775084286592,-0.11392636692392986,1.0711521951802199,0.09486770003052286,-1.5671802429014785,2.1693638290085584
1776813895.8782692,-0.2919243572,-0.43429730190000004,9.9708917742,0.04123340357836603,-0.11071932442339028,1.0132727138609579,0.09903651378074878,-1.5783742798233815,2.271808566907629
1776813895.9794934,0.2069791549,-1.543370577,9.9338030239,0.09071348787240527,-0.006414085001079161,0.7351763141713115,0.1082189125717157,-1.579023540343955,2.3462261894324015
1776813896.0806026,-0.41874395499999995,-0.7274180704000001,9.1118684608,-0.10201449477906856,-0.0675006088208807,0.02153299964648004,0.09790430185456413,-1.5858484773753636,2.348403375227489
1776813896.1817439,-0.2009970984,-0.6604190376,10.1659068161,0.07131851655961828,-0.0022907446432425577,0.0035124751196385882,0.10511754322652277,-1.5860801660703945,2.348758631226536
1776813896.2830687,-0.0071784678,-0.8123632727,9.9864451211,0.259465009924607,-0.06597344572538566,-0.02871066619530672,0.13140778260183486,-1.5927649120445762,2.3458495288118457
1776813896.384076,0.010767701699999998,0.2440679052,10.133603711,0.28955012290585924,-0.07880161572754397,-0.0006108652381980154,0.16065450550742413,-1.6007244632150845,2.3457878268647874
1776813896.4852967,0.6329015777,-0.4331008906,10.060622621699999,0.12675453692608818,-0.058337630247910464,0.058795779176558975,0.17348467677111193,-1.6066294336039144,2.3517391713666185
1776813896.5863688,0.1926222193,-0.6520441585,9.8356972973,-0.5210680481829071,-0.058643062867009474,0.059101211795657985,0.1208192489761702,-1.612556609533943,2.3577126533586004
1776813896.68743,-0.33738798659999997,-0.7046862557000001,9.8033941922,-0.05451972250917286,-0.09254608358699933,-0.028863382504856226,0.11530942553540131,-1.6219094190720549,2.354795688007605
1776813896.7888181,-0.09930213789999999,-1.0660024683,10.5930256502,0.08124507668033605,-0.03512475119638588,0.30054569719342356,0.12354671892032118,-1.6254706549339564,2.3852674800781357
1776813896.8899224,-0.3505485109,-0.9499505722,10.2843515348,-0.08552113334772216,-0.023671027980173093,0.04260785036431157,0.11490016806237151,-1.6278638966892818,2.3895753152377215
1776813896.9915407,-0.131605243,-1.1162517428999998,10.3034941156,0.07040221870232127,-0.08384125394267761,0.26511551337793865,0.12205432113541198,-1.6363837015419915,2.4165159003457437
1776813897.0926263,-0.3804587934,-0.3888336725,10.073783146,0.01557706357404939,0.017256942979093935,0.24785857039884474,0.12362893893192357,-1.6346392720223266,2.441570848225531
1776813897.1944246,-0.010767701699999998,-0.6927221427000001,10.530812262600001,0.0398589567924205,-0.09269879989654883,0.046883907031697675,0.12768651281272242,-1.644075851890698,2.446343550069996
1776813897.2954447,0.2656033086,-0.2596212521,9.6586284249,-0.04291328298341058,-0.05207626155638081,-0.004886921905584123,0.12335140877171397,-1.649336600922669,2.4458498727414826
1776813897.3982718,-0.0526420972,-0.27517459899999996,9.9038927414,0.02871066619530672,-0.038179077387375956,0.0478002048889947,0.1263036425158683,-1.6532624436675551,2.45076502785808
1776813897.4996984,-0.1387837108,-0.9248259349,10.3238331077,0.018173240836390957,-0.024434609527920613,-0.008093964406123703,0.12814689257050724,-1.6557407630687504,2.449944084556434
1776813897.6012788,0.22492532440000002,-0.1112662509,9.6765745944,0.02748893571891069,-0.01435533309765336,-0.05451972250917286,0.13093922914493375,-1.6571989832798397,2.4444059503504882
1776813897.70259,-0.1854437515,-0.6364908116,10.2125668568,0.024129176908821607,-0.027183503099811684,-0.002596177262341565,0.1333837851770825,-1.6599529767844123,2.444142928498928
1776813897.8041444,-0.215354034,-0.9248259349,10.4913306897,0.013744467859455345,-0.04932736798448974,0.017256942979093935,0.1347795962782175,-1.6649623877362636,2.445895446881464
1776813897.9051452,0.059820565,-0.8123632727,9.882357338,-0.05696318346196493,-0.0398589567924205,-0.00839939702522271,0.12902626998531522,-1.668988173694568,2.445047101181438
1776813898.006675,-0.1220339526,-0.3804587934,9.744770038499999,-0.037720928458727446,-0.03298672286269283,-0.012217304763960306,0.1251964702804384,-1.67233731027859,2.443806680224393
1776813898.1080282,0.1172483074,-0.2584248408,9.5270231819,-0.004428772976935611,-0.07131851655961828,-0.05131268000863329,0.12474760010671394,-1.679565667903739,2.4386059775219304
1776813898.2092667,0.0,-0.3684946804,10.079765202499999,0.019242255003237483,-0.028557949885757217,0.03252857393404432,0.1266956569311,-1.682456831603423,2.4418991212012497
1776813898.3110948,0.1734796385,-0.466600407,10.3477613337,0.028863382504856226,-0.0555887366760194,-0.07070765132142026,0.12963476028199183,-1.6881173269458813,2.434699095532134
1776813898.4122014,-0.7561319416,-1.5888342063999998,10.6337036344,-0.022449297503777062,-0.0160352125026979,-0.038484510006474966,0.1273649871584839,-1.6897385934626727,2.4308080558918346
1776813898.5188947,-0.1399801221,-0.0741775006,9.5916293921,0.040011673101970006,-0.045356743936202634,0.02199114857512855,0.13163396331276933,-1.694577852691004,2.43315436339648
1776813898.6204803,0.08853443620000001,-0.6496513358999999,9.924231733500001,-0.09987646644537551,-0.08139779298988555,0.02580905631386615,0.12148794988610497,-1.7028466984959154,2.435776192554135
1776813898.7216196,-0.0287138712,-0.885344362,10.4985091575,0.0317649923862968,-0.01435533309765336,0.049938233222687756,0.12470063920361714,-1.7042985869374834,2.4408269108561855
1776813898.8232055,0.08853443620000001,-1.0815558152,9.9170532657,-0.05497787143782138,-0.05619960191421741,-0.0876591616814152,0.11911566457660636,-1.710007672111761,2.431921979089785
1776813898.9243023,-0.0251246373,-0.7106683122,10.2496556071,-0.014202616788103856,-0.05543602036646989,0.0873537290623162,0.11767982449461029,-1.7156120801737456,2.440753167551094
1776813899.0260618,0.1160518961,-0.49172504429999997,9.8560362894,0.014660765716752368,-0.04337143191205909,-0.004734205596034618,0.11917169571223472,-1.7200255325258846,2.4402714174704028
1776813899.1280253,-0.2667997199,-0.5240281494,10.1671032274,0.011759155835311794,-0.049938233222687756,0.08918632477691024,0.12037070063402018,-1.7251174105703502,2.4493651690849836
1776813899.229071,-0.071784678,-0.7262216591,10.0319087505,0.0160352125026979,-0.036193765363232405,-0.011759155835311794,0.12199098843911095,-1.7287746316161265,2.448176958027917
1776813899.330345,-0.10648060570000001,-0.6460621019999999,10.1491570579,-0.004886921905584123,-0.048869219055841226,-0.0030543261909900766,0.12149607024397713,-1.7337238135674649,2.4478676341559584
1776813899.4318619,-0.0526420972,-0.6759723845,10.057033387799999,0.002901609881440573,-0.04337143191205909,0.0004581489286485115,0.12179063286419928,-1.738126749574996,2.447914144043362
1776813899.533172,-0.0681954441,-0.6077769404,10.0953185494,0.012675453692608817,-0.0317649923862968,0.001832595714594046,0.12307478326444013,-1.7413448614213827,2.448099804342192
1776813899.6343274,-0.10169496049999999,-0.610169763,10.0845508477,0.009773843811168246,-0.04108068726881653,-0.0006108652381980154,0.12406346151252874,-1.7455003996828802,2.4480380119516862
1776813899.7356305,-0.1004985492,-0.5659025448999999,10.1001041946,0.01389718416900485,-0.03695734691097993,0.0007635815477475192,0.12547128935826274,-1.7492442935143926,2.448115365130023
1776813899.8368216,-0.0897308475,-0.5670989562,10.1132647189,0.03130684345764829,-0.0438295808407076,-0.0015271630954950383,0.12863926152750843,-1.7536794545513366,2.447960829902255
1776813899.9379756,-0.1363908882,-0.5682953675,10.085747259,0.019700403931885994,-0.03390302071998985,0.0013744467859455344,0.13063203793965814,-1.7571088837257338,2.4480998608147306
1776813900.0395055,-0.1100698396,-0.5826523031,10.088140081599999,0.0,-0.038942658935123484,0.0003054326190990077,0.13063203793965814,-1.7610627255263152,2.4481308713386567
1776813900.1406736,-0.131605243,-0.5838487144,10.1240324206,0.02672535417116317,-0.0319177086958463,0.002748893571891069,0.1333357927307867,-1.7642917812482914,2.4484089718314586
1776813900.2417185,1.2382856955,-0.4366901245,9.0580299523,0.4864014459151697,-0.06826419036862821,0.02138028333693054,0.18248417491711505,-1.7711895290778954,2.4505693402792095
1776813900.3431094,-0.3864408499,0.6879364975,9.8715896363,0.07254024703601432,-0.059406644414756994,-0.06887505560682623,0.18983909139801952,-1.7772128185748888,2.4435860406310246
1776813900.4443996,-0.1507478238,-0.31944181709999997,10.1240324206,-0.10399980680321212,-0.0436768645311581,-0.000916297857297023,0.17930492746476856,-1.781636858053464,2.4434932286139914
1776813900.545761,-0.0346959277,-0.0047856452,10.1156575415,0.04581489286485115,-0.0439822971502571,0.002596177262341565,0.18394879432979686,-1.7860949702438913,2.4437563810696763
1776813900.646996,-0.1040877831,-0.20578274359999998,10.0917293155,-0.0024434609527920616,-0.038789942625573975,-0.0012217304763960308,0.18370143077313406,-1.7900218667059133,2.443632699291345
1776813900.7485824,-0.10169496049999999,-0.1842473402,10.0917293155,-0.025198191075668133,-0.04077525464971753,-0.002901609881440573,0.1811416387203203,-1.7941640756641029,2.4433379353579907
1776813900.8495858,-0.08374879099999999,-0.16271193679999998,10.094122138100001,-0.010079276430267254,-0.04077525464971753,-0.0004581489286485115,0.1801235974463349,-1.7982825153634074,2.443291660754628
1776813900.9509606,-0.10289137179999999,-0.19860427579999998,10.1048898398,-0.007483099167925688,-0.04046982203061852,-0.00015271630954950385,0.17936499928156086,-1.8023851380912672,2.443276179159428
1776813901.052323,-0.0921236701,-0.21415762270000002,10.0953185494,-0.012217304763960306,-0.040622538340168025,-0.0007635815477475192,0.1781266231328902,-1.8065027387855972,2.4431987806501363
1776813901.153331,-0.09690931529999999,-0.2261217357,10.088140081599999,-0.011911872144861299,-0.04092797095926703,-0.001832595714594046,0.17692342948523196,-1.8106367887544743,2.443013673935112
1776813901.255306,-0.1100698396,-0.2380858487,10.079765202499999,-0.007635815477475192,-0.04016438941151951,-0.001069014166846527,0.17614476747572266,-1.8147325509244931,2.4429046612537806
1776813901.356353,-0.0921236701,-0.2297109696,10.0953185494,-0.005803219762881146,-0.04123340357836603,-0.000916297857297023,0.17555836930183163,-1.8188990642652978,2.4428120720684294
1776813901.457847,-0.0849452023,-0.2380858487,10.086943670299998,-0.005039638215133627,-0.040622538340168025,0.0003054326190990077,0.17504687588855788,-1.8230220111722923,2.442843071669234
1776813901.5591269,-0.0873380249,-0.23569302609999998,10.083354436399999,-0.0035124751196385882,-0.04108068726881653,0.0003054326190990077,0.1746911333372616,-1.8271826523157142,2.4428740058041294
1776813901.6609118,-0.10648060570000001,-0.2524427843,10.089336492900001,-0.002596177262341565,-0.04169155250701455,-0.0006108652381980154,0.17442688157861294,-1.8314262246751896,2.4428118289197416
1776813901.7620401,-0.10169496049999999,-0.2440679052,10.086943670299998,-0.002138028333693054,-0.04184426881656405,-0.0006108652381980154,0.1742106663228508,-1.8356578661093919,2.442750053132381
1776813901.8649082,-0.095712904,-0.2440679052,10.0917293155,-0.001832595714594046,-0.04153883619746504,-0.0007635815477475192,0.17402215072001925,-1.8399308864402402,2.4426715049645344
1776813901.9659245,-0.10169496049999999,-0.24646072779999997,10.0917293155,-0.0022907446432425577,-0.04199698512611356,0.00015271630954950385,0.17379074821077592,-1.844173265776368,2.442686931798484
1776813902.067978,-0.1088734283,-0.2452643165,10.0917293155,-0.0022907446432425577,-0.04138611988791554,-0.0006108652381980154,0.17355696992257186,-1.848396860183255,2.4426245909216293
1776813902.168986,-0.1004985492,-0.2500499617,10.079765202499999,-0.002748893571891069,-0.04153883619746504,-0.0006108652381980154,0.17327930919464804,-1.8525926222941038,2.4425628885376462
1776813902.2706656,-0.10648060570000001,-0.2524427843,10.0809616138,0.009773843811168246,-0.04230241774521256,-0.00015271630954950385,0.17427310936730314,-1.8568939136663767,2.4425473604099484
1776813902.3723094,-0.0933200814,-0.2380858487,10.0965149607,0.009468411192069237,-0.04352414822160859,-0.0003054326190990077,0.17523551466779136,-1.861317873515395,2.4425163150776745
1776813902.473445,-0.0933200814,-0.24047867129999997,10.0917293155,0.009468411192069237,-0.04352414822160859,0.00015271630954950385,0.1761931070952352,-1.8657197096738063,2.442531760116827
1776813902.5801482,-0.1004985492,-0.2309073809,10.1072826624,0.010537425358915765,-0.04352414822160859,0.0003054326190990077,0.17731748495856636,-1.8703638791093045,2.4425643507795325
1776813902.6833017,-0.0873380249,-0.2309073809,10.1024970172,0.011911872144861299,-0.04230241774521256,0.000916297857297023,0.17854623587089394,-1.87472752016975,2.4426588700804808
1776813902.7844002,-0.0849452023,-0.2285145583,10.097711372000001,0.012522737383059314,-0.04306599929296008,0.000916297857297023,0.17981226630512992,-1.8790814297118785,2.4427515064537175
1776813902.8859043,-0.0825523797,-0.2201396792,10.088140081599999,0.013286318930806833,-0.04306599929296008,0.0012217304763960308,0.18116088198374616,-1.8834528046701517,2.442875517090832
1776813902.986978,-0.0741775006,-0.2105683888,10.0953185494,0.01389718416900485,-0.04245513405476207,0.000916297857297023,0.1825655223897594,-1.887743903932478,2.4429681307439757
1776813903.0883682,-0.0741775006,-0.2081755662,10.097711372000001,0.016187928812247405,-0.04291328298341058,0.0013744467859455344,0.1842068184890944,-1.8920948869882621,2.4431074860731643
1776813903.1895072,-0.08614161359999999,-0.20578274359999998,10.094122138100001,0.017409659288643436,-0.0436768645311581,0.001069014166846527,0.18596761521425234,-1.8965123243864654,2.443215605170323
1776813903.291729,-0.0741775006,-0.1519442351,10.0965149607,0.023518311670623588,-0.04321871560250958,0.000916297857297023,0.1883716976580781,-1.9009302161501194,2.4433092707200825
1776813903.3960557,-0.0753739119,-0.1411765334,10.1024970172,0.023212879051524585,-0.04260785036431157,0.0013744467859455344,0.19079342130748644,-1.9053753536381781,2.4434526622519552
1776813903.497157,-0.0693918554,-0.12323036389999999,10.1120683076,0.02306016274197508,-0.04260785036431157,0.0007635815477475192,0.1931248360096002,-1.909683066895726,2.443529861414277
1776813903.598592,-0.0646062102,-0.12442677519999999,10.109675485,0.02306016274197508,-0.04245513405476207,0.0015271630954950383,0.19546394237347142,-1.9139895011285486,2.4436847691204937
1776813903.699814,-0.0705882667,-0.1220339526,10.1024970172,0.02275473012287607,-0.04214970143566306,0.0013744467859455344,0.19776722253677093,-1.918255979820298,2.4438238934256593
1776813903.8012176,-0.0777667345,-0.12442677519999999,10.094122138100001,0.02306016274197508,-0.04214970143566306,0.0012217304763960308,0.20010560316843917,-1.9225301060079831,2.4439477811412442
1776813903.9024663,-0.08853443620000001,-0.1220339526,10.121639598,0.02336559536107409,-0.04276056667386108,0.0013744467859455344,0.2024713402849659,-1.9268595595545681,2.4440869421480986
1776813904.0038993,-0.08614161359999999,-0.11964113,10.1036934285,0.022907446432425576,-0.04169155250701455,0.0015271630954950383,0.20479491218572884,-1.9310884604139567,2.4442418469414826
1776813904.1058664,-0.0777667345,-0.1004985492,10.1048898398,0.020922134408282025,-0.04153883619746504,0.0015271630954950383,0.2069282814803409,-1.9353240549258872,2.4443975673279508
1776813904.2076838,-0.08614161359999999,-0.1256231865,10.109675485,0.02076941809873252,-0.04199698512611356,0.0013744467859455344,0.20904296899639077,-1.9396000774767232,2.4445375098841597
1776813904.3090053,-0.08135596839999999,-0.1136590735,10.1001041946,0.02107485071783153,-0.04230241774521256,0.0012217304763960308,0.21117830361546203,-1.9438862201541345,2.4446612973983086
1776813904.4104083,-0.095712904,-0.1040877831,10.1132647189,0.018173240836390957,-0.04199698512611356,0.0004581489286485115,0.21302112471911347,-1.9481448403516484,2.4447077550731904
1776813904.511575,-0.0801595571,-0.095712904,10.1001041946,0.01756237559819294,-0.04199698512611356,0.0006108652381980154,0.21479785274438956,-1.9523935378033956,2.444769554308852
1776813904.6129751,-0.0729810893,-0.0849452023,10.089336492900001,0.01756237559819294,-0.04184426881656405,0.00015271630954950385,0.21657868003517208,-1.9566365523918687,2.4447850397635547
1776813904.714351,-0.0646062102,-0.0777667345,10.109675485,0.016187928812247405,-0.04169155250701455,0.0004581489286485115,0.2182197445643279,-1.960863067641487,2.4448314849860777
1776813904.8156946,-0.0705882667,-0.0669990328,10.1120683076,0.013744467859455345,-0.04138611988791554,-0.0006108652381980154,0.2196126588535991,-1.965057287334737,2.4447695776843323
1776813904.9171445,-0.0646062102,-0.0550349198,10.0989077833,0.010995574287564275,-0.04138611988791554,-0.0004581489286485115,0.22072815949595836,-1.9692559078080614,2.4447230984909005
1776813905.018243,-0.047856452,-0.059820565,10.0989077833,0.009621127501618741,-0.04016438941151951,0.0003054326190990077,0.22170084141494453,-1.9733164688349403,2.4447539772819793
1776813905.1208646,-0.056231331100000004,-0.0646062102,10.110871896299999,0.00992656012071775,-0.04092797095926703,-0.000916297857297023,0.22271952045359314,-1.9775165608712146,2.4446599453707196
1776813905.2219348,-0.0610169763,-0.0646062102,10.1132647189,0.009315694882519734,-0.04138611988791554,-0.0003054326190990077,0.22366105927836666,-1.9816994628632412,2.444629075245317
1776813905.3233526,-0.0789631458,-0.0693918554,10.110871896299999,0.007788531787024695,-0.040622538340168025,0.0004581489286485115,0.2244509548810624,-1.985819310516517,2.4446755396925344
1776813905.4243903,-0.0825523797,-0.0765703232,10.106086251099999,0.006566801310628665,-0.04138611988791554,0.0003054326190990077,0.2251144496491627,-1.9900008705666374,2.4447063999143066
1776813905.525683,-0.08135596839999999,-0.0849452023,10.109675485,0.005039638215133627,-0.04046982203061852,0.00015271630954950385,0.22562492775827828,-1.9941001644731717,2.444721868947916
1776813905.6270838,-0.0873380249,-0.0777667345,10.1036934285,0.005039638215133627,-0.04016438941151951,0.0004581489286485115,0.2261359513680895,-1.9981728677877277,2.4447683256397172
1776813905.728411,-0.08374879099999999,-0.0777667345,10.106086251099999,0.004276056667386108,-0.04046982203061852,-0.0003054326190990077,0.22656923213540373,-2.0022735607640945,2.4447373770134804
1776813905.8295145,-0.08135596839999999,-0.0741775006,10.1120683076,0.0033597588100890844,-0.04046982203061852,0.0007635815477475192,0.22690891565887927,-2.006365203205959,2.4448145778142703
1776813905.9310749,-0.0789631458,-0.0777667345,10.114461130199999,0.002138028333693054,-0.04016438941151951,-0.0013744467859455344,0.22712605457380888,-2.0104443128221363,2.4446749885118155
1776813906.0323,-0.0681954441,-0.08614161359999999,10.1084790737,-0.009621127501618741,-0.03924809155422248,-0.001069014166846527,0.22615215461752655,-2.0144172062945898,2.4445667774055617
1776813906.133865,-0.08374879099999999,-0.1339980656,10.1024970172,-0.011759155835311794,-0.0398589567924205,-0.001069014166846527,0.22495783451338922,-2.018465486128094,2.4444582028506403
1776813906.2350547,-0.08853443620000001,-0.1363908882,10.0953185494,-0.012828170002158322,-0.039706240482871,-0.00198531202414355,0.22365975695098173,-2.0224833452498316,2.4442573098945535
1776813906.336539,-0.095712904,-0.143569356,10.0917293155,-0.012980886311707827,-0.0398589567924205,-0.001832595714594046,0.22234240080705503,-2.0265284035270654,2.4440713302036463
1776813906.438241,-0.08853443620000001,-0.1746760498,10.1013006059,-0.014508049407202865,-0.040622538340168025,-0.0016798794050445422,0.22086690353084876,-2.030659795900443,2.4439004831506117
1776813906.5393956,-0.10289137179999999,-0.1830509289,10.1036934285,-0.01435533309765336,-0.04046982203061852,-0.0013744467859455344,0.2194147960442811,-2.034753503176405,2.443761451582749
1776813906.6408527,-0.09690931529999999,-0.179461695,10.0989077833,-0.015729779883598895,-0.0398589567924205,-0.0012217304763960308,0.2178188978949752,-2.0387974780984326,2.443637498328434
1776813906.742035,-0.08614161359999999,-0.1854437515,10.1013006059,-0.01557706357404939,-0.040011673101970006,-0.0015271630954950383,0.21624277598461122,-2.0428459481034853,2.4434829765725157
1776813906.8437696,-0.08853443620000001,-0.1974078645,10.0917293155,-0.0158824961931484,-0.0398589567924205,-0.000916297857297023,0.21462697598046426,-2.0469009846523543,2.443389757341507
1776813906.9447997,-0.1004985492,-0.20578274359999998,10.0953185494,-0.016646077740895916,-0.04108068726881653,-0.0013744467859455344,0.21294522089337892,-2.051051371059932,2.4432508968297295
1776813907.046412,-0.095712904,-0.1926222193,10.1036934285,-0.016187928812247405,-0.04046982203061852,-0.0015271630954950383,0.21130032773726096,-2.0551636039502266,2.443095718230096
1776813907.1476228,-0.0933200814,-0.18783657410000001,10.094122138100001,-0.01511891464540088,-0.04092797095926703,-0.001069014166846527,0.2097701297980547,-2.0593059579674717,2.4429875224162125
1776813907.2490864,-0.0933200814,-0.2105683888,10.1001041946,-0.014966198335851376,-0.04046982203061852,-0.001832595714594046,0.20825160609076265,-2.0634121700331085,2.4428015807377688
1776813907.351365,-0.08853443620000001,-0.21894326790000002,10.0953185494,-0.015424347264499889,-0.040622538340168025,-0.00198531202414355,0.20667402375903293,-2.067566990827565,2.44259852558616
1776813907.4526732,-0.095712904,-0.2261217357,10.1013006059,-0.014813482026301871,-0.040622538340168025,-0.0024434609527920616,0.20517329793129843,-2.0716823833036204,2.4423509831815853
1776813907.5542467,-0.0933200814,-0.2261217357,10.0917293155,-0.012828170002158322,-0.04046982203061852,-0.001832595714594046,0.20387029622564726,-2.0757930434464487,2.442164840080778
1776813907.6557698,-0.1004985492,-0.2213360905,10.0845508477,-0.01389718416900485,-0.04108068726881653,-0.001832595714594046,0.20245941016072172,-2.0799636846713385,2.441978789171117
1776813907.757283,-0.0897308475,-0.2297109696,10.090532904199998,-0.012522737383059314,-0.04092797095926703,-0.002138028333693054,0.2011881876754782,-2.084118411818232,2.441761751185832
1776813907.8586423,-0.0897308475,-0.24047867129999997,10.0929257268,-0.011453723216212788,-0.04092797095926703,-0.000916297857297023,0.20002724553624485,-2.0882668450624258,2.441668875814693
1776813907.961435,-0.0933200814,-0.24167508259999998,10.083354436399999,-0.010079276430267254,-0.04153883619746504,-0.0013744467859455344,0.19899116909608908,-2.0925367358460982,2.4415275926637627
1776813908.062988,-0.10169496049999999,-0.23928226,10.094122138100001,-0.009773843811168246,-0.040622538340168025,-0.001069014166846527,0.19799860629465546,-2.0966620749895566,2.441419031107356
1776813908.165301,-0.0897308475,-0.2285145583,10.086943670299998,-0.0079412480965742,-0.04260785036431157,-0.001069014166846527,0.19718611304710376,-2.1010214137600745,2.4413096570163395
1776813908.2664287,-0.0873380249,-0.2333002035,10.083354436399999,-0.005955936072430649,-0.04184426881656405,-0.0003054326190990077,0.1965838033803552,-2.1052530252649233,2.4412787693411215
1776813908.36794,-0.0849452023,-0.24167508259999998,10.073783146,-0.004581489286485115,-0.04138611988791554,-0.0006108652381980154,0.1961187307218122,-2.1094541816137617,2.4412167596533156
1776813908.4690921,-0.10169496049999999,-0.24287149389999999,10.085747259,0.008704829644321718,-0.04321871560250958,0.0006108652381980154,0.1969992432310125,-2.113825848984002,2.4412785500048386
1776813908.570458,-0.1052841944,-0.24646072779999997,10.089336492900001,0.009773843811168246,-0.04321871560250958,-0.0006108652381980154,0.1979899767736724,-2.118206748867951,2.4412166291584225
1776813908.6770406,-0.09092725880000001,-0.227318147,10.088140081599999,0.011606439525762293,-0.04337143191205909,0.0007635815477475192,0.19922702175791693,-2.1228293906511806,2.44129801369686
1776813908.7790065,-0.08374879099999999,-0.21296121140000002,10.0953185494,0.013744467859455345,-0.04245513405476207,0.0007635815477475192,0.20062848885144674,-2.127158366784528,2.4413758729798336
1776813908.880322,-0.08374879099999999,-0.2105683888,10.089336492900001,0.014813482026301871,-0.04352414822160859,0.0007635815477475192,0.20212932416527066,-2.131568037551949,2.441453235624876
1776813908.9818861,-0.0777667345,-0.21415762270000002,10.097711372000001,0.014966198335851376,-0.04276056667386108,0.001069014166846527,0.20364935366129375,-2.1359109789691577,2.4415618091603064
1776813909.083086,-0.0801595571,-0.2117648001,10.0929257268,0.015729779883598895,-0.04276056667386108,0.000916297857297023,0.20524120526736045,-2.1402383425584652,2.441654538380077
1776813909.1842625,-0.08853443620000001,-0.1950150419,10.094122138100001,0.017256942979093935,-0.04321871560250958,0.0012217304763960308,0.20698720236421447,-2.1446110609514712,2.441778148794014
1776813909.2863188,-0.0753739119,-0.1974078645,10.090532904199998,0.017256942979093935,-0.04276056667386108,0.001069014166846527,0.20874838150786168,-2.148975044670243,2.441887248386983
1776813909.3875558,-0.0741775006,-0.1830509289,10.089336492900001,0.018784106074588972,-0.04245513405476207,0.00198531202414355,0.21065002915602593,-2.153273077566094,2.4420882355367888
1776813909.4887662,-0.0741775006,-0.1830509289,10.083354436399999,0.019700403931885994,-0.04321871560250958,0.0013744467859455344,0.21264391404656155,-2.1576472591476565,2.4422273437849658
1776813909.5900598,-0.0873380249,-0.18185451760000002,10.0929257268,0.020922134408282025,-0.04321871560250958,0.0013744467859455344,0.21476319160397395,-2.162025036875742,2.4423665663982264
1776813909.6944149,-0.0753739119,-0.1304088317,10.1120683076,0.022602013813326566,-0.04184426881656405,0.0006108652381980154,0.21712182694372317,-2.1663916995993318,2.4424303132993006
1776813909.7968352,-0.0825523797,-0.1136590735,10.106086251099999,0.02199114857512855,-0.04184426881656405,0.001069014166846527,0.21937416763891382,-2.170677403422125,2.4425398020830946
1776813909.897895,-0.08614161359999999,-0.1136590735,10.1084790737,0.02153299964648004,-0.040622538340168025,0.0006108652381980154,0.22155029072349505,-2.174782713638427,2.44260153607131
1776813909.9989264,-0.0873380249,-0.1100698396,10.120443186700001,0.020616701789183015,-0.04184426881656405,0.0003054326190990077,0.2236332229771841,-2.1790102946570253,2.44263239432692
1776813910.1000571,-0.09092725880000001,-0.10648060570000001,10.114461130199999,0.020616701789183015,-0.04153883619746504,0.0004581489286485115,0.2257182049546524,-2.1832111472338505,2.4426787272597528
1776813910.2015073,-0.08614161359999999,-0.1040877831,10.1132647189,0.019547687622336492,-0.04184426881656405,0.0003054326190990077,0.22770132186826744,-2.1874562568770575,2.442709713461528
1776813910.302708,-0.08614161359999999,-0.08853443620000001,10.1084790737,0.018478673455489966,-0.04123340357836603,-0.0003054326190990077,0.229571374350624,-2.1916291012591755,2.4426788035031417
1776813910.404092,-0.08135596839999999,-0.0873380249,10.110871896299999,0.018631389765039467,-0.04214970143566306,0.0003054326190990077,0.2314603022056689,-2.1959024134558347,2.4427097695335522
1776813910.5050755,-0.0849452023,-0.08374879099999999,10.1084790737,0.018478673455489966,-0.04199698512611356,0.00015271630954950385,0.23332634113261366,-2.2001434110170726,2.442725191342866
1776813910.6065552,-0.0729810893,-0.0849452023,10.1120683076,0.018784106074588972,-0.04169155250701455,0.0004581489286485115,0.23523254787329576,-2.2043742601244403,2.4427716841901996
1776813910.707603,-0.06340979890000001,-0.0765703232,10.1048898398,0.017409659288643436,-0.04138611988791554,0.00015271630954950385,0.2369917548473275,-2.2085562345977965,2.4427871158303227
1776813910.8089302,-0.06340979890000001,-0.0753739119,10.109675485,0.0160352125026979,-0.04169155250701455,-0.0006108652381980154,0.23861655772475582,-2.2127807220791103,2.4427252185778494
1776813910.9101326,-0.0669990328,-0.059820565,10.1132647189,0.01511891464540088,-0.04199698512611356,0.00015271630954950385,0.2401466295019069,-2.2170309214600854,2.4427406738483257
1776813911.0118008,-0.0610169763,-0.0610169763,10.1120683076,0.014049900478554353,-0.04169155250701455,-0.00015271630954950385,0.2415750564617478,-2.221269623199613,2.4427251474683276
1776813911.1133955,-0.06340979890000001,-0.0610169763,10.106086251099999,0.012370021073509811,-0.04153883619746504,0.0,0.24283178487481058,-2.225489748241009,2.4427251474683276
1776813911.214489,-0.0538385085,-0.0538385085,10.1072826624,0.010842857978014772,-0.040622538340168025,0.000916297857297023,0.24392792767019783,-2.229596424065981,2.4428177792538532
1776813911.3157604,-0.044267218100000005,-0.0705882667,10.116853952800001,0.009468411192069237,-0.04092797095926703,-0.0006108652381980154,0.24488680684137304,-2.233741256612351,2.4427559160815195
1776813911.41688,-0.0693918554,-0.0729810893,10.1048898398,0.007330382858376184,-0.04077525464971753,0.0003054326190990077,0.2456280516248202,-2.237864430720276,2.44278680128083
1776813911.518636,-0.0873380249,-0.08135596839999999,10.1240324206,0.005803219762881146,-0.040317105721069016,-0.0003054326190990077,0.2462185646114608,-2.2419669419958845,2.442755721649954
1776813911.6196873,-0.0789631458,-0.0801595571,10.114461130199999,0.0035124751196385882,-0.04077525464971753,-0.0003054326190990077,0.24657350489588167,-2.2460873357324225,2.442724857277396
1776813911.7212598,-0.0801595571,-0.08374879099999999,10.114461130199999,0.002138028333693054,-0.040317105721069016,-0.0007635815477475192,0.2467906698078408,-2.250182445500795,2.4426472983802676
1776813911.8222651,-0.0777667345,-0.09092725880000001,10.109675485,0.000916297857297023,-0.04016438941151951,-0.0004581489286485115,0.2468832207622662,-2.254239262336442,2.442601022903055
1776813911.9236784,-0.0873380249,-0.0945164927,10.106086251099999,0.0,-0.038942658935123484,-0.00015271630954950385,0.2468832207622662,-2.258188563941506,2.44258553544578
1776813912.0248952,-0.09092725880000001,-0.0897308475,10.1084790737,-0.00198531202414355,-0.04016438941151951,-0.0006108652381980154,0.24668227384595834,-2.262253874632965,2.4425237056253777
1776813912.1266167,-0.0981057266,-0.0921236701,10.109675485,-0.002748893571891069,-0.0398589567924205,-0.0007635815477475192,0.24640265219923438,-2.2663083885104625,2.4424460329457323
1776813912.227888,-0.0981057266,-0.095712904,10.1072826624,-0.004581489286485115,-0.04016438941151951,-0.001069014166846527,0.24593867840673023,-2.2703758920914154,2.442337772394148
1776813912.3294775,-0.08853443620000001,-0.0945164927,10.1132647189,-0.005497787143782138,-0.04077525464971753,-0.0015271630954950383,0.24538016128241016,-2.2745182274301228,2.4421826287485033
1776813912.4308581,-0.09092725880000001,-0.09690931529999999,10.1013006059,-0.005955936072430649,-0.04016438941151951,-0.0012217304763960308,0.24477634498949125,-2.2785901167900633,2.4420587689961097
1776813912.5323017,-0.08135596839999999,-0.10169496049999999,10.0989077833,-0.007635815477475192,-0.04016438941151951,-0.0015271630954950383,0.2440017409196781,-2.28266453419728,2.441903848182147
1776813912.6336718,-0.0801595571,-0.1004985492,10.1084790737,-0.009773843811168246,-0.038637226316024474,-0.0016798794050445422,0.24301096543223105,-2.2865811935460942,2.441733558645242
1776813912.7349753,-0.09092725880000001,-0.1088734283,10.110871896299999,-0.00992656012071775,-0.039706240482871,-0.002138028333693054,0.2420053693804969,-2.2906035777530307,2.441516968726407
1776813912.8363552,-0.08135596839999999,-0.12681959780000002,10.106086251099999,-0.010537425358915765,-0.039706240482871,-0.00198531202414355,0.24093708655305582,-2.294628991305707,2.4413156980487734
1776813912.9374573,-0.095712904,-0.1399801221,10.1072826624,-0.012370021073509811,-0.040011673101970006,-0.0015271630954950383,0.23968645127571658,-2.2986742560299405,2.441161298631818
1776813913.0389295,-0.0849452023,-0.1399801221,10.1001041946,-0.01389718416900485,-0.03955352417332149,-0.0013744467859455344,0.2382762742670283,-2.3026878367469763,2.441021830576014
1776813913.139935,-0.0933200814,-0.1507478238,10.0953185494,-0.01435533309765336,-0.040011673101970006,-0.0022907446432425577,0.23682630589178544,-2.306729237963079,2.4407904526437942
1776813913.2413993,-0.0945164927,-0.1782652837,10.106086251099999,-0.014966198335851376,-0.039706240482871,-0.0012217304763960308,0.23530777147983414,-2.31075800272948,2.440666490650982
1776813913.3429184,-0.0897308475,-0.1734796385,10.1084790737,-0.013591751549905842,-0.04153883619746504,-0.001832595714594046,0.23392794898879557,-2.3149749883200696,2.440480447169044
1776813913.445594,-0.10648060570000001,-0.2321037922,10.085747259,-0.012522737383059314,-0.040622538340168025,-0.0013744467859455344,0.2326421684582888,-2.3191459349190304,2.4403393249156955
1776813913.5466526,-0.0945164927,-0.2261217357,10.0917293155,-0.012370021073509811,-0.04077525464971753,-0.0013744467859455344,0.23139207289239072,-2.323266620302917,2.4402004254083733
1776813913.6479683,-0.09930213789999999,-0.24047867129999997,10.086943670299998,-0.010537425358915765,-0.04077525464971753,-0.00198531202414355,0.23032446587848665,-2.327397795269763,2.4399992820579275
1776813913.7490094,-0.1040877831,-0.24047867129999997,10.0761759686,-0.009315694882519734,-0.04123340357836603,-0.0007635815477475192,0.22938319801995108,-2.33156406284033,2.439922128954769
1776813913.8503115,-0.095712904,-0.23688943739999999,10.0953185494,-0.007788531787024695,-0.04138611988791554,-0.000916297857297023,0.22859420302863606,-2.335756565637318,2.439829306014614
1776813913.951616,-0.0921236701,-0.2297109696,10.1001041946,-0.006261368691529657,-0.04199698512611356,-0.0006108652381980154,0.22795989800931263,-2.3400110505230236,2.439767422598095
1776813914.0528328,-0.0897308475,-0.24287149389999999,10.086943670299998,-0.004276056667386108,-0.04169155250701455,-0.0006108652381980154,0.22752708926649567,-2.3442309357654887,2.4397055927776927
1776813914.1542857,-0.10289137179999999,-0.24287149389999999,10.088140081599999,-0.0032070425005395805,-0.04123340357836603,-0.0006108652381980154,0.22720172573705202,-2.34841418114405,2.4396436187720845
1776813914.2553098,-0.1052841944,-0.24167508259999998,10.1013006059,-0.00198531202414355,-0.04199698512611356,-0.0004581489286485115,0.22700116127564382,-2.352656890904608,2.4395973346656055
1776813914.3578594,-0.1040877831,-0.2380858487,10.0953185494,0.0003054326190990077,-0.04199698512611356,-0.0003054326190990077,0.22703248325417885,-2.356963662953173,2.4395660126870706
1776813914.4593346,-0.08853443620000001,-0.23928226,10.090532904199998,0.00015271630954950385,-0.04169155250701455,-0.0004581489286485115,0.22704798017815905,-2.361194323199767,2.43951952191513
1776813914.5606818,-0.0897308475,-0.24167508259999998,10.0917293155,0.0004581489286485115,-0.04245513405476207,-0.0012217304763960308,0.22709441229293634,-2.3654970325024625,2.4393957029423907
1776813914.6616955,-0.10289137179999999,-0.2524427843,10.088140081599999,0.002748893571891069,-0.04230241774521256,-0.0012217304763960308,0.22737208809476805,-2.3697701545639838,2.43927229147491
1776813914.763343,-0.1100698396,-0.2560320182,10.0917293155,0.003665191429188092,-0.04245513405476207,-0.0003054326190990077,0.22774464606364953,-2.3740856177035274,2.439241244977503
1776813914.8697917,-0.10169496049999999,-0.2380858487,10.094122138100001,0.016951510359994926,-0.04306599929296008,0.0007635815477475192,0.22954911146303636,-2.3786699352046723,2.439322527202701
1776813914.9718497,-0.0873380249,-0.19860427579999998,10.088140081599999,0.017409659288643436,-0.04413501345980661,0.001069014166846527,0.23132590531832564,-2.3831742634869406,2.43943162857978
1776813915.073294,-0.0801595571,-0.19381863059999999,10.097711372000001,0.019089538693687978,-0.04245513405476207,0.000916297857297023,0.23326242914676057,-2.38748109248138,2.439524581723545
1776813915.174616,-0.0765703232,-0.1806581063,10.088140081599999,0.019089538693687978,-0.04260785036431157,0.0015271630954950383,0.23519662270924166,-2.391798212512838,2.4396793172085434
1776813915.2760665,-0.0693918554,-0.1830509289,10.085747259,0.0198531202414355,-0.04214970143566306,0.0013744467859455344,0.23721073055798467,-2.3960743184070923,2.4398187554442257
1776813915.377401,-0.0777667345,-0.1782652837,10.0989077833,0.020311269170084013,-0.04260785036431157,0.0013744467859455344,0.2392689643228292,-2.4003919666807136,2.439958034420794
1776813915.4785182,-0.0753739119,-0.1866401628,10.086943670299998,0.02107485071783153,-0.04321871560250958,0.0015271630954950383,0.24139999282888022,-2.4047621193416733,2.440112456776305
1776813915.5810707,-0.0789631458,-0.1806581063,10.0917293155,0.020922134408282025,-0.04321871560250958,0.000916297857297023,0.24354560821723567,-2.4091943029541154,2.440206425333459
1776813915.682084,-0.0849452023,-0.1746760498,10.1048898398,0.02153299964648004,-0.04306599929296008,0.0012217304763960308,0.2457207301977169,-2.413544546915078,2.4403298365096564
1776813915.7834442,-0.0753739119,-0.15672988029999999,10.0989077833,0.022449297503777062,-0.04276056667386108,0.00015271630954950385,0.2479961928476031,-2.41787876148629,2.4403453158474107
1776813915.8844395,-0.0681954441,-0.1411765334,10.0965149607,0.022449297503777062,-0.04260785036431157,0.001069014166846527,0.2502634664331819,-2.4221819542099396,2.440453281256248
1776813915.985832,-0.071784678,-0.1507478238,10.106086251099999,0.02275473012287607,-0.04230241774521256,0.001069014166846527,0.2525706255790344,-2.4264711024206855,2.440561671283234
1776813916.0869493,-0.0801595571,-0.1351944769,10.1120683076,0.023212879051524585,-0.04245513405476207,0.0007635815477475192,0.2549178509171824,-2.4307640540259827,2.4406388826430416
1776813916.1884701,-0.0777667345,-0.1256231865,10.1120683076,0.02275473012287607,-0.04276056667386108,0.000916297857297023,0.25722792879396283,-2.435105139968926,2.4407319059132475
1776813916.2898247,-0.0741775006,-0.12442677519999999,10.110871896299999,0.02199114857512855,-0.04108068726881653,0.0007635815477475192,0.2594568328393229,-2.439268856553661,2.4408092984148224
1776813916.3913722,-0.0801595571,-0.1172483074,10.1156575415,0.021685715956029545,-0.04199698512611356,0.0015271630954950383,0.2616589626386193,-2.4435335445452564,2.4409643779781534
1776813916.4926329,-0.08853443620000001,-0.12323036389999999,10.106086251099999,0.02138028333693054,-0.04153883619746504,0.0016798794050445422,0.2638239442847505,-2.4477397946005968,2.441134483678921
1776813916.5939496,-0.08853443620000001,-0.1136590735,10.1013006059,0.020922134408282025,-0.04184426881656405,0.000916297857297023,0.26594370570004194,-2.4519793174311797,2.441227319945284
1776813916.6951368,-0.0933200814,-0.09690931529999999,10.110871896299999,0.019242255003237483,-0.04169155250701455,0.0004581489286485115,0.2678907761665422,-2.456197970108597,2.441273678765915
1776813916.796524,-0.0801595571,-0.0945164927,10.0989077833,0.017867808217291947,-0.04276056667386108,0.00015271630954950385,0.2697023443257875,-2.460533346899953,2.4412891622544555
1776813916.8979719,-0.0777667345,-0.0825523797,10.1084790737,0.017867808217291947,-0.04214970143566306,0.000916297857297023,0.27151499452946426,-2.464809342252216,2.4413821186751568
1776813916.9992507,-0.051445685899999996,-0.0801595571,10.1036934285,0.016646077740895916,-0.04138611988791554,-0.0004581489286485115,0.2732008890063229,-2.469000878061654,2.441335717909739
1776813917.1005318,-0.056231331100000004,-0.0765703232,10.1156575415,0.016493361431346415,-0.04184426881656405,0.0003054326190990077,0.2748713558846135,-2.473238914401021,2.441366652481559
1776813917.201848,-0.056231331100000004,-0.0693918554,10.1084790737,0.015271630954950384,-0.04153883619746504,0.0007635815477475192,0.27641861970858456,-2.4774474720022224,2.4414440156727575
1776813917.303472,-0.059820565,-0.0658026215,10.1084790737,0.015271630954950384,-0.04184426881656405,0.0004581489286485115,0.27797058411590936,-2.4816998544782924,2.4414905746049773
1776813917.4045072,-0.0610169763,-0.0693918554,10.116853952800001,0.01511891464540088,-0.04245513405476207,0.0006108652381980154,0.27949812544269703,-2.4859893139615954,2.4415522934464637
1776813917.505821,-0.0753739119,-0.0610169763,10.110871896299999,0.014966198335851376,-0.04184426881656405,0.0004581489286485115,0.28101440830799124,-2.490228717074765,2.4415987102688708
1776813917.6070628,-0.0681954441,-0.059820565,10.1120683076,0.014049900478554353,-0.04153883619746504,-0.00015271630954950385,0.2824368459017643,-2.4944341847433114,2.4415832489906775
1776813917.7085347,-0.071784678,-0.059820565,10.110871896299999,0.01313360262125733,-0.04169155250701455,0.0003054326190990077,0.2837695375259331,-2.4986647058293356,2.4416142418191464
1776813917.8096294,-0.0669990328,-0.0586241537,10.1084790737,0.013286318930806833,-0.04123340357836603,0.00015271630954950385,0.2851127142545819,-2.502833185332039,2.4416296806321194
1776813917.9111195,-0.0538385085,-0.051445685899999996,10.1156575415,0.011301006906663283,-0.04169155250701455,-0.00015271630954950385,0.2862596536800571,-2.507064461861157,2.441614181450694
1776813918.012148,-0.0502492746,-0.06340979890000001,10.109675485,0.009621127501618741,-0.040317105721069016,0.0003054326190990077,0.2872316612055121,-2.51113763625354,2.4416450388324544
1776813918.114195,-0.0658026215,-0.0669990328,10.110871896299999,0.007788531787024695,-0.04077525464971753,0.00015271630954950385,0.2880264591052082,-2.515298637022537,2.4416606231049975
1776813918.2155905,-0.0849452023,-0.0753739119,10.1048898398,0.006414085001079161,-0.040317105721069016,0.0003054326190990077,0.2886768176179707,-2.5193866048170444,2.4416915925579863
1776813918.3169074,-0.08614161359999999,-0.0741775006,10.114461130199999,0.0039706240482871,-0.040622538340168025,0.0,0.2890791090522148,-2.523502355644311,2.4416915925579863
1776813918.418349,-0.08614161359999999,-0.0873380249,10.120443186700001,0.0024434609527920616,-0.040317105721069016,-0.0003054326190990077,0.2893269776940231,-2.527592188234148,2.4416606089777604
1776813918.519376,-0.0741775006,-0.0945164927,10.106086251099999,0.0003054326190990077,-0.040317105721069016,-0.0007635815477475192,0.2893578346388587,-2.5316653049524485,2.4415834666156715
1776813918.620801,-0.09690931529999999,-0.09690931529999999,10.106086251099999,-0.0006108652381980154,-0.040317105721069016,-0.001069014166846527,0.2892958776733202,-2.535754464677991,2.441475041925979
1776813918.7219582,-0.095712904,-0.0921236701,10.1084790737,-0.0016798794050445422,-0.04016438941151951,-0.0004581489286485115,0.28912594579582873,-2.5398173813852867,2.4414286968684817
1776813918.8233547,-0.1004985492,-0.0897308475,10.116853952800001,-0.002748893571891069,-0.04046982203061852,-0.0007635815477475192,0.288847217441994,-2.5439208821500756,2.44135127232575
1776813918.9247544,-0.0921236701,-0.0921236701,10.1120683076,-0.013591751549905842,-0.040011673101970006,-0.001832595714594046,0.28746901845452755,-2.547978052203067,2.4411654477431703
1776813919.026169,-0.08614161359999999,-0.0933200814,10.106086251099999,-0.014660765716752368,-0.04123340357836603,-0.0024434609527920616,0.2859822015837569,-2.552159724652109,2.440917644931375
1776813919.1271598,-0.09092725880000001,-0.09930213789999999,10.1048898398,-0.01435533309765336,-0.0398589567924205,-0.0016798794050445422,0.2845324454083575,-2.556185111479548,2.4407479926129776
1776813919.2287328,-0.0897308475,-0.09930213789999999,10.097711372000001,-0.015271630954950384,-0.040622538340168025,-0.0024434609527920616,0.282981260183711,-2.5603112641771077,2.440499802977034
1776813919.3297253,-0.08614161359999999,-0.17706887240000002,10.1036934285,-0.014966198335851376,-0.04046982203061852,-0.0015271630954950383,0.2814697872786287,-2.5643984102979935,2.4403455710479443
1776813919.4312909,-0.0945164927,-0.1782652837,10.1048898398,-0.014966198335851376,-0.04092797095926703,-0.000916297857297023,0.27994973637328713,-2.568555284202397,2.440252506706801
1776813919.532366,-0.09690931529999999,-0.19980068709999999,10.0989077833,-0.015271630954950384,-0.04016438941151951,-0.001832595714594046,0.278406153641315,-2.572614906787484,2.440067276778964
1776813919.6338546,-0.0933200814,-0.1902293967,10.1013006059,-0.015424347264499889,-0.0398589567924205,-0.0013744467859455344,0.2768407583820613,-2.576660136120803,2.439927786112298
1776813919.7353265,-0.0921236701,-0.19980068709999999,10.0953185494,-0.01511891464540088,-0.0398589567924205,-0.001832595714594046,0.27530661337284373,-2.580704700236013,2.4397418291414836
1776813919.8363323,-0.08374879099999999,-0.2117648001,10.089336492900001,-0.01435533309765336,-0.04077525464971753,-0.002138028333693054,0.27385664157502276,-2.5848232371511,2.439525875895
1776813919.9376903,-0.09930213789999999,-0.2201396792,10.0917293155,-0.013286318930806833,-0.04153883619746504,-0.000916297857297023,0.2725099676997438,-2.5890335278876044,2.4394330018346357
1776813920.039317,-0.0945164927,-0.2261217357,10.086943670299998,-0.013286318930806833,-0.04123340357836603,-0.0015271630954950383,0.27115972382061315,-2.5932239399262857,2.4392778013887586
1776813920.1405919,-0.10289137179999999,-0.21894326790000002,10.086943670299998,-0.011759155835311794,-0.04046982203061852,-0.001069014166846527,0.2699688156991675,-2.597322519824768,2.439169537014082
1776813920.2418444,-0.09690931529999999,-0.24047867129999997,10.0989077833,-0.01038470904936626,-0.04108068726881653,-0.0016798794050445422,0.26891733736618995,-2.6014820444066937,2.438999444930806
1776813920.3431668,-0.10289137179999999,-0.24765713909999998,10.085747259,-0.00916297857297023,-0.04184426881656405,-0.0015271630954950383,0.26798892227157467,-2.6057218066721033,2.438844709081703
1776813920.4442172,-0.1004985492,-0.2380858487,10.0953185494,-0.008552113334772215,-0.04046982203061852,-0.000916297857297023,0.26712472799587206,-2.6098112974410532,2.438752116837878
1776813920.5455086,-0.09690931529999999,-0.2333002035,10.0917293155,-0.00717766654882668,-0.04199698512611356,-0.0007635815477475192,0.2663976919726679,-2.6140652316193753,2.4386747725800904
1776813920.6466584,-0.0981057266,-0.23569302609999998,10.0917293155,-0.006414085001079161,-0.04138611988791554,-0.0004581489286485115,0.2657489085740485,-2.618251429262848,2.4386284309087602
1776813920.748104,-0.08853443620000001,-0.24167508259999998,10.0845508477,-0.006108652381980153,-0.04199698512611356,-0.0013744467859455344,0.265129212210452,-2.6225118417625737,2.438488999226951
1776813920.849274,-0.0897308475,-0.23928226,10.079765202499999,-0.005497787143782138,-0.04138611988791554,-0.0007635815477475192,0.2645730020494262,-2.6266988682525176,2.4384117478156973
1776813920.9508636,-0.095712904,-0.2440679052,10.0809616138,-0.004276056667386108,-0.04184426881656405,-0.0015271630954950383,0.26413859882213037,-2.630949814119627,2.4382566038059488
1776813921.0530064,-0.1112662509,-0.2572284295,10.097711372000001,-0.002748893571891069,-0.04153883619746504,-0.0006108652381980154,0.26385781910604816,-2.6351927076070916,2.438194208313486
1776813921.15436,-0.1004985492,-0.23928226,10.0989077833,-0.000916297857297023,-0.04123340357836603,-0.0004581489286485115,0.2637649489780079,-2.6393718633689036,2.438147773249466
1776813921.255602,-0.0825523797,-0.23928226,10.0845508477,0.001069014166846527,-0.04169155250701455,-0.001069014166846527,0.2638731779253602,-2.6435927923156433,2.438039544302114
