field.header.stamp,field.orientation.x,field.orientation.y,field.orientation.z,field.orientation.w,field.angular_velocity.x,field.angular_velocity.y,field.angular_velocity.z,field.linear_acceleration.x,field.linear_acceleration.y,field.linear_acceleration.z
1776813630.8131957,0.0,0.0,0.0,1.0,0.0051923545246831,-0.0439822971502571,-0.0013744467859455,-0.2021935097,-0.1028913717999999,10.0390872183
1776813630.9147198,0.0003100365314709042,-0.00220163360891485,-2.2573880272997773e-05,0.9999975280855555,0.0061086523819801,-0.043371431912059,-0.0004581489286485,-0.191425808,-0.1040877831,10.0450692748
1776813631.0156782,0.0005796920703815688,-0.0044295389544251156,-4.3814464539793904e-05,0.9999900205612291,0.0053450708342326,-0.0441350134598066,-0.0004581489286485,-0.1998006870999999,-0.107677017,10.0570333878
1776813631.1165578,0.0008258691433227703,-0.006624891179701589,-7.171908671423323e-05,0.9999777115583066,0.0048869219055841,-0.0435241482216085,-0.000610865238198,-0.2069791549,-0.1040877831,10.0474620974
1776813631.2174475,0.0011259179137149127,-0.008805032999815937,-9.038107104133765e-05,0.9999605969906943,0.0059559360724306,-0.0432187156025095,-0.0004581489286485,-0.1998006870999999,-0.1052841944,10.061819033
1776813631.3182752,0.0013455242318686845,-0.01104576882415993,-0.00039332984638178306,0.9999380110023104,0.0044287729769356,-0.0444404460789056,-0.0061086523819801,-0.1770688724,-0.1016949604999999,10.0546405652
1776813631.419182,0.0016141226832181688,-0.013287890058659843,-0.00039441268815306965,0.9999103314919713,0.0053450708342326,-0.0444404460789056,-0.0001527163095495,-0.2009970984,-0.1064806057,10.0701939121
1776813631.5199745,0.0018356219436459285,-0.01545819693183827,-0.000433606734680135,0.9998787359599642,0.0044287729769356,-0.04306599929296,-0.000916297857297,-0.2105683888,-0.1088734283,10.059426210400002
1776813631.6207943,0.0020654539010264194,-0.017659741514831823,-0.0004254540861465312,0.9998418307005527,0.0045814892864851,-0.0436768645311581,0.0,-0.1986042757999999,-0.1088734283,10.064211855599998
1776813631.7216425,0.0023002772666621198,-0.019846730704456833,-0.0005547451067502185,0.9998002341781622,0.0047342055960346,-0.043371431912059,-0.002748893571891,-0.1974078645,-0.1088734283,10.0689975008
1776813631.8226292,0.0025467417578814633,-0.02203621059076927,-0.0004902515891170615,0.9997538092863649,0.0048869219055841,-0.043371431912059,0.0010690141668465,-0.2081755662,-0.1004985492,10.0701939121
1776813631.9235487,0.0028210492068673813,-0.024255272572033904,-0.0005471496253792922,0.9997016675294267,0.0054977871437821,-0.0439822971502571,-0.0013744467859455,-0.1974078645,-0.1004985492,10.0689975008
1776813632.0243833,0.0030879044745795695,-0.026456888299746368,-0.0005722247429269618,0.999645022228538,0.0053450708342326,-0.0436768645311581,-0.0007635815477475,-0.1998006870999999,-0.1028913717999999,10.0689975008
1776813632.1252203,0.0033251112632040687,-0.028627489822015618,-0.0005509136475733316,0.9995844671440881,0.0047342055960346,-0.04306599929296,0.0001527163095495,-0.1950150419,-0.1112662509,10.0713903234
1776813632.2260413,0.003577627956390789,-0.030836075564507136,-0.0005279550788868026,0.9995179129387428,0.0050396382151336,-0.0438295808407076,0.0001527163095495,-0.2021935097,-0.1064806057,10.0821580251
1776813632.3275907,0.0037444149042919588,-0.03303742879097731,-0.0005763512976497718,0.9994469347969842,0.003359758810089,-0.043371431912059,-0.001221730476396,-0.1878365741,-0.1124626622,10.0713903234
1776813632.4285512,0.0038493662610489428,-0.035233421306343604,-0.0005950358094327108,0.9993715196736513,0.002138028333693,-0.0435241482216085,-0.000610865238198,-0.1974078645,-0.0933200814,10.0785687912
1776813632.5293794,0.004538426933840157,-0.037434451087335244,-0.0005989740090199558,0.999288599846357,0.0137444678594553,-0.0436768645311581,-0.0007635815477475,-0.2261217357,-0.1028913717999999,10.0749795573
1776813632.6302128,0.004727791240066262,-0.039604283711688615,-0.0006044500324112906,0.999204074922552,0.0038179077387375,-0.04306599929296,-0.0004581489286485,-0.2165504453,-0.1770688724,10.085747259
1776813632.7310374,0.004033370212837678,-0.04177309434266077,-0.0006229921550883531,0.9991187879299138,-0.0137444678594553,-0.04306599929296,0.0,-0.1818545176,-0.1423729447,10.0773723799
1776813632.8319397,0.0037066311010863023,-0.04394372164904384,-0.0006590921726292851,0.9990269144577735,-0.0064140850010791,-0.04306599929296,-0.000610865238198,-0.2105683888,-0.0574277424,10.0893364929
1776813632.9329069,0.0036649940460341352,-0.04602326844323016,-0.0006761026058243242,0.9989334159320687,-0.0007635815477475,-0.041233403578366,-0.0004581489286485,-0.2225325018,-0.0562313311,10.0833544364
1776813633.033882,0.003798440217495997,-0.04818006289054532,-0.0007229438768362932,0.9988311823045615,0.002748893571891,-0.042760566673861,-0.001221730476396,-0.1986042757999999,-0.0466600407,10.090532904199998
1776813633.1349108,0.0037478828521120395,-0.050352965753469855,-0.0007553414961539833,0.9987241669616195,-0.000916297857297,-0.04306599929296,-0.0007635815477475,-0.1974078645,-0.0442672181,10.0761759686
1776813633.235918,0.003383007118425238,-0.05251710756298892,-0.0007737495877201574,0.9986139944881753,-0.0071776665488266,-0.0429132829834105,-0.0001527163095495,-0.2129612114,-0.0789631458,10.1024970172
1776813633.3371432,0.002840291233352957,-0.054685499838558096,-0.0007957700585268902,0.9984992717088634,-0.0106901416684652,-0.0429132829834105,0.0,-0.2105683888,-0.1160518961,10.0941221381
1776813633.4381194,0.0024696585738940044,-0.056879166646227955,-0.0007872544269381751,0.9983777047884363,-0.0073303828583761,-0.0435241482216085,0.0004581489286485,-0.2105683888,-0.1639083481,10.0833544364
1776813633.539143,0.0024196688790604944,-0.0591201728146303,-0.0008073082738429921,0.9982476138825652,-0.000916297857297,-0.0444404460789056,-0.0004581489286485,-0.2129612114,-0.1686939932999999,10.085747259
1776813633.6456387,0.0028346193971061674,-0.06147463335584729,-0.0008483862664721616,0.9981042603993736,0.0079412480965742,-0.0442877297693561,-0.0013744467859455,-0.2033899209999999,-0.1698904046,10.0821580251
1776813633.748451,0.0036153125742082095,-0.06375529236665034,-0.0007915681736589839,0.9979586993608804,0.0152716309549503,-0.0444404460789056,0.0,-0.1950150419,-0.1280160091,10.0833544364
1776813633.850063,0.004569894104112097,-0.06600926674802736,-0.0007583092952762329,0.9978082570004508,0.0189368223841384,-0.0444404460789056,-0.0007635815477475,-0.1902293967,-0.1112662509,10.0725867347
1776813633.9513566,0.005613623557429193,-0.06823274004146927,-0.0007146223749174723,0.9976533815568662,0.0207694180987325,-0.0439822971502571,-0.0007635815477475,-0.1902293967,-0.0921236701,10.0845508477
1776813634.052748,0.006640234486007398,-0.07044275356866184,-0.0006982814199525907,0.9974934777524583,0.0204639854796335,-0.0436768645311581,-0.0013744467859455,-0.1986042757999999,-0.0765703232,10.0989077833
1776813634.1538663,0.007612354265630258,-0.07262307667891839,-0.0006429973947173185,0.997330199758622,0.0193949713127869,-0.0432187156025095,-0.000610865238198,-0.2081755662,-0.0681954441,10.0833544364
1776813634.255276,0.008576120801933224,-0.07483278223008193,-0.0006222306099517753,0.997159023267986,0.0192422550032374,-0.0436768645311581,-0.0013744467859455,-0.215354034,-0.0729810893,10.085747259
1776813634.3563092,0.009131003360031689,-0.07701026796546578,-0.0005904841451506124,0.9969883122354045,0.0111482905971137,-0.0432187156025095,-0.000610865238198,-0.2129612114,-0.0586241537,10.0941221381
1776813634.4590936,0.00963783924467314,-0.07924102407714534,-0.0005911489810612738,0.9968087192138627,0.0100792764302672,-0.0435241482216085,-0.001221730476396,-0.1734796385,-0.0251246373,10.1036934285
1776813634.5603335,0.010101811599268134,-0.08143740060042158,-0.0005464415709007547,0.9966271141141348,0.0093156948825197,-0.0435241482216085,-0.000305432619099,-0.1878365741,-0.0311066937999999,10.097711372
1776813634.6617062,0.010489043605294962,-0.08360534560496158,-0.0005063980914082318,0.9964436109040461,0.0077885317870246,-0.0429132829834105,-0.000305432619099,-0.1902293967,-0.0382851616,10.1013006059
1776813634.7628238,0.010870423256630833,-0.08576031691418204,-0.0005186739834491837,0.9962563590353136,0.0077885317870246,-0.042760566673861,-0.0013744467859455,-0.1926222193,-0.0263210486,10.097711372
1776813634.86446,0.011203220505075355,-0.08793313662506337,-0.00048758080997828674,0.996063257829816,0.0067195176201781,-0.0429132829834105,-0.0004581489286485,-0.1986042757999999,-0.0275174599,10.0893364929
1776813634.965771,0.011482153734063113,-0.09009066976974886,-0.00044466133009388024,0.9958672771219901,0.0056505034533316,-0.042760566673861,-0.0001527163095495,-0.2021935097,-0.023928226,10.097711372
1776813635.066839,0.011696692816057522,-0.09221210055719578,-0.00042972574556513344,0.9956705937325757,0.0044287729769356,-0.042149701435663,-0.000610865238198,-0.1962114532,-0.0275174599,10.0893364929
1776813635.170228,0.011859949370665836,-0.09444475436585383,-0.00042575695417760933,0.9954593656723085,0.003359758810089,-0.043371431912059,-0.0007635815477475,-0.1974078645,-0.0346959277,10.090532904199998
1776813635.2712867,0.01201320911582974,-0.09656499943355266,-0.00040725626061173135,0.995254097119663,0.0032070425005395,-0.042149701435663,-0.0004581489286485,-0.2021935097,-0.0346959277,10.0941221381
1776813635.3726733,0.012168273442191237,-0.0986914899106913,-0.0003725870583635082,0.9950436091546582,0.0032070425005395,-0.042149701435663,-0.0001527163095495,-0.2033899209999999,-0.0311066937999999,10.0941221381
1776813635.4737978,0.01224282664337432,-0.10082006061831608,-0.000375728179592304,0.9948292755046135,0.0016798794050445,-0.0423024177452125,-0.0007635815477475,-0.2081755662,-0.0454636294,10.0821580251
1776813635.5753777,0.012256698322192595,-0.10290362674515514,-0.00037785916629641796,0.9946157419684162,0.0004581489286485,-0.041233403578366,-0.000610865238198,-0.2105683888,-0.0370887503,10.086943670299998
1776813635.6765504,0.012224832625817937,-0.10504742726492755,-0.000376179451380887,0.9943920001595502,-0.0004581489286485,-0.0426078503643115,-0.0004581489286485,-0.2069791549,-0.0382851616,10.0929257268
1776813635.778062,0.012131183464440674,-0.10715936254111691,-0.0003817134439193105,0.9941677724118704,-0.0016798794050445,-0.041844268816564,-0.0004581489286485,-0.2093719774999999,-0.0346959277,10.085747259
1776813635.8791072,0.011994320141277576,-0.10927615200734762,-0.0003694280228316849,0.99393899330379,-0.0025961772623415,-0.042149701435663,0.0,-0.2069791549,-0.0418743954999999,10.086943670299998
1776813635.9807618,0.011834410098263538,-0.1113896860081117,-0.00035269767767914404,0.993706274606832,-0.00305432619099,-0.041844268816564,0.0001527163095495,-0.2081755662,-0.0490528633,10.0785687912
1776813636.0821445,0.011589384629270016,-0.11353558458089748,-0.00035355977029517295,0.9934662712912189,-0.0047342055960346,-0.0426078503643115,0.0,-0.2105683888,-0.0550349198,10.0845508477
1776813636.1831956,0.011271856339151395,-0.11565137111106136,-0.00040206447878048134,0.9932258272713995,-0.0061086523819801,-0.042149701435663,-0.0007635815477475,-0.2021935097,-0.0526420972,10.090532904199998
1776813636.284486,0.010861256653938691,-0.11780229571161756,-0.0004625552257200242,0.9929775618167981,-0.0079412480965742,-0.042760566673861,-0.0007635815477475,-0.1926222193,-0.0705882667,10.1013006059
1776813636.3856435,0.010418728496782837,-0.11992695869760428,-0.0005439651779722114,0.9927278976516871,-0.0085521133347722,-0.0423024177452125,-0.0010690141668465,-0.2057827435999999,-0.0861416135999999,10.0917293155
1776813636.4871433,0.009902241559778138,-0.1221269953082053,-0.0005977447475516901,0.9924649038279884,-0.0100792764302672,-0.0436768645311581,-0.000305432619099,-0.2081755662,-0.0837487909999999,10.1024970172
1776813636.58822,0.009389140707034994,-0.124278882248722,-0.0006462478949070638,0.9922026939226933,-0.0100792764302672,-0.0429132829834105,-0.0001527163095495,-0.1950150419,-0.0885344362,10.1084790737
1776813636.6897564,0.00883540145053826,-0.12645530744226852,-0.0007019288126907622,0.9919327085023616,-0.0108428579780147,-0.0432187156025095,-0.0001527163095495,-0.1938186305999999,-0.1112662509,10.1048898398
1776813636.7908075,0.008294352120699337,-0.128559368193495,-0.0007439605815768103,0.9916668488435216,-0.0106901416684652,-0.0419969851261135,0.0001527163095495,-0.2141576227,-0.1088734283,10.086943670299998
1776813636.8922365,0.007743188664703061,-0.13070865547370597,-0.000736393833217167,0.9913903106938665,-0.0109955742875642,-0.042760566673861,0.001221730476396,-0.2045863322999999,-0.1124626622,10.0821580251
1776813636.9934185,0.007174380979294023,-0.1328906463354873,-0.0007636522600863356,0.9911044451566778,-0.0113010069066632,-0.0435241482216085,0.000610865238198,-0.1938186305999999,-0.11964113,10.085747259
1776813637.0948398,0.006572984382548135,-0.13505417046834534,-0.0008055145947313709,0.99081608690092,-0.0119118721448612,-0.04306599929296,0.0004581489286485,-0.1974078645,-0.1339980656,10.0809616138
1776813637.1960683,0.0059687378174919856,-0.13718982108366484,-0.000828154139028685,0.9905264465528522,-0.0120645884544108,-0.0426078503643115,0.000916297857297,-0.2117648001,-0.1363908882,10.0821580251
1776813637.2975998,0.0053817908329278795,-0.13938517168801565,-0.0008806549084217193,0.9902232246760653,-0.0116064395257622,-0.0436768645311581,0.000305432619099,-0.1998006870999999,-0.143569356,10.0809616138
1776813637.3992617,0.00481980103285199,-0.14155953436641397,-0.0009172774209527078,0.9899175856353399,-0.0111482905971137,-0.0432187156025095,0.000610865238198,-0.1998006870999999,-0.1495514125,10.0929257268
1776813637.5003462,0.004287649322432759,-0.1436904800403859,-0.0009824133832382772,0.9896129025396727,-0.0105374253589157,-0.0426078503643115,0.0,-0.2033899209999999,-0.1519442351,10.086943670299998
1776813637.6017475,0.0037694076339924794,-0.14585040198600907,-0.0010476723396869634,0.9892989205438752,-0.0102319927398167,-0.04306599929296,0.0,-0.1950150419,-0.1567298802999999,10.1036934285
1776813637.7029934,0.003216446613314105,-0.14795267610439025,-0.0011056920011526727,0.9889885932354993,-0.0109955742875642,-0.0419969851261135,0.000305432619099,-0.2081755662,-0.155533469,10.0881400816
1776813637.8044496,0.002692116685247755,-0.15010463797091594,-0.0011690458418801247,0.9886657592428256,-0.0103847090493662,-0.0429132829834105,0.0001527163095495,-0.2069791549,-0.1567298802999999,10.0929257268
1776813637.905445,0.002200293976355177,-0.15230723849530542,-0.0012816789473484376,0.9883299151130799,-0.0096211275016187,-0.0441350134598066,-0.000916297857297,-0.2117648001,-0.155533469,10.1036934285
1776813638.0070903,0.0021244144621212695,-0.15446999677574036,-0.0013018668459989988,0.987994338092082,-0.0013744467859455,-0.04306599929296,-0.000305432619099,-0.2057827435999999,-0.1567298802999999,10.0941221381
1776813638.1082115,0.002021196701780556,-0.15661327391496577,-0.0013563861114502308,0.9876570039311448,-0.001832595714594,-0.0429132829834105,-0.000916297857297,-0.2093719774999999,-0.1639083481,10.0785687912
1776813638.2102342,0.0019577932948066,-0.15879799931673882,-0.0013901292247471887,0.9873081737730901,-0.0010690141668465,-0.043371431912059,-0.000610865238198,-0.2237289131,-0.1782652837,10.0821580251
1776813638.311239,0.001899979326376262,-0.16099064797027346,-0.0014376479363958075,0.9869530558811203,-0.000916297857297,-0.0439822971502571,-0.000916297857297,-0.2129612114,-0.1746760498,10.086943670299998
1776813638.4127378,0.001980635325688435,-0.1631781132199228,-0.0014551904713018874,0.9865935651880083,0.001832595714594,-0.0436768645311581,-0.0007635815477475,-0.2081755662,-0.1639083481,10.0881400816
1776813638.5145977,0.0020663930044982023,-0.16538794086323572,-0.0014863642518300935,0.9862253037507611,0.0019853120241435,-0.0439822971502571,-0.0010690141668465,-0.2009970984,-0.1782652837,10.0917293155
1776813638.6156025,0.0022423683943135903,-0.16757093859743416,-0.001501300869781292,0.9858563274723441,0.0038179077387375,-0.0438295808407076,-0.0010690141668465,-0.2129612114,-0.1878365741,10.0833544364
1776813638.7168448,0.002473065985822597,-0.16973547307282189,-0.0014986488129960533,0.9854854170291462,0.0048869219055841,-0.043371431912059,-0.000916297857297,-0.2177468566,-0.1746760498,10.0941221381
1776813638.8182092,0.00275201322084951,-0.17191707665024478,-0.00147159303995909,0.9851064813476719,0.0058032197628811,-0.0436768645311581,-0.000610865238198,-0.2105683888,-0.1758724611,10.0941221381
1776813638.9191906,0.003116542075834391,-0.17412017637483132,-0.001449885088172283,0.9847184111094491,0.0076358154774751,-0.0442877297693561,-0.0010690141668465,-0.2033899209999999,-0.1579262916,10.0965149607
1776813639.026468,0.0035164029114739146,-0.17646783116317621,-0.0014381091778557023,0.9842990761537478,0.0079412480965742,-0.0444404460789056,-0.0013744467859455,-0.2057827435999999,-0.1567298802999999,10.0881400816
1776813639.1277497,0.003985356374710488,-0.178645262873175,-0.0013644210175275335,0.983904530603873,0.0096211275016187,-0.0436768645311581,-0.0004581489286485,-0.1986042757999999,-0.1603191142,10.0917293155
1776813639.229164,0.0044786895642865325,-0.1808170221596269,-0.001276709957480377,0.9835057274102659,0.0100792764302672,-0.0435241482216085,-0.000305432619099,-0.2093719774999999,-0.1579262916,10.085747259
1776813639.3303502,0.005054370833101598,-0.18302125226483099,-0.0012077525606382779,0.983095222187885,0.0119118721448612,-0.0442877297693561,-0.0010690141668465,-0.2021935097,-0.1471585899,10.097711372
1776813639.4316216,0.005699241151506048,-0.1852034109742186,-0.0010791266840258313,0.9826830876225618,0.0131336026212573,-0.0438295808407076,-0.0001527163095495,-0.1938186305999999,-0.1375872994999999,10.0953185494
1776813639.5327978,0.006435215313541337,-0.18743567495025618,-0.0009223583372857127,0.982255366498401,0.0149661983358513,-0.0448985950075541,0.0,-0.1986042757999999,-0.1399801221,10.0761759686
1776813639.633981,0.007196648916997925,-0.18962925376052542,-0.0007794025657029272,0.9818290823224948,0.0155770635740493,-0.0441350134598066,-0.0004581489286485,-0.1902293967,-0.1363908882,10.0797652025
1776813639.7351146,0.008030951639435431,-0.1917974470699926,-0.0005531869497828808,0.9814015167592707,0.0167987940504454,-0.0436768645311581,0.000916297857297,-0.191425808,-0.1244267751999999,10.0833544364
1776813639.8368976,0.00890191310976214,-0.19403202490710608,-0.0003442645225624184,0.9809547444889458,0.0175623755981929,-0.0447458786980046,0.000305432619099,-0.1866401628,-0.1292124204,10.0749795573
1776813639.937844,0.009834709059384793,-0.19619443121982927,-0.0001488098020778466,0.980515681420592,0.0190895386936879,-0.0436768645311581,-0.000305432619099,-0.1998006870999999,-0.1148554848,10.086943670299998
1776813640.0401435,0.010875564343680633,-0.19836184713929225,5.8087580004997225e-05,0.9800685161382992,0.0210748507178315,-0.0432187156025095,-0.000610865238198,-0.1974078645,-0.0693918554,10.1001041946
1776813640.1422455,0.011902461627338339,-0.20053170808253837,0.000252531804072224,0.9796148741665764,0.020922134408282,-0.043371431912059,-0.000916297857297,-0.2033899209999999,-0.0741775006,10.0965149607
1776813640.2436996,0.012876120045114774,-0.20268665817377685,0.00044095145775628836,0.9791588888902261,0.020005836550985,-0.043371431912059,-0.000916297857297,-0.2021935097,-0.0586241537,10.0953185494
1776813640.3446789,0.013825964974641607,-0.20480041082869058,0.0006141624109130494,0.9787059094648671,0.0197004039318859,-0.042760566673861,-0.001221730476396,-0.2141576227,-0.0681954441,10.0965149607
1776813640.4460416,0.014770355972113179,-0.20696651334455102,0.0007914437426176841,0.9782362048888087,0.0195476876223364,-0.0436768645311581,-0.001221730476396,-0.2165504453,-0.0681954441,10.097711372
1776813640.5474658,0.015706715524425784,-0.2090949067685758,0.0009709117209910222,0.9777687233601335,0.0193949713127869,-0.0429132829834105,-0.001221730476396,-0.2057827435999999,-0.0681954441,10.0965149607
1776813640.6489584,0.01663708326240266,-0.21123040552775724,0.0011970499480901393,0.9772939631004179,0.0190895386936879,-0.04306599929296,-0.000305432619099,-0.2069791549,-0.0514456858999999,10.0881400816
1776813640.750383,0.017539771858783446,-0.21336352235951883,0.0014070907109560164,0.9768144060287051,0.0186313897650394,-0.04306599929296,-0.000610865238198,-0.2105683888,-0.0610169763,10.085747259
1776813640.8515344,0.018479953903044178,-0.21550566671411148,0.0015797705990379454,0.9763264327276518,0.0197004039318859,-0.043371431912059,-0.0016798794050445,-0.1998006870999999,-0.0574277424,10.0929257268
1776813640.9532804,0.01937215254855439,-0.21764341174687438,0.0017819048480758677,0.9758344582171345,0.0184786734554899,-0.04306599929296,-0.000916297857297,-0.2033899209999999,-0.0574277424,10.0941221381
1776813641.0544703,0.020230345828800532,-0.21979890068657834,0.001959917142454056,0.9753334481547394,0.0180205245268414,-0.0436768645311581,-0.0013744467859455,-0.1926222193,-0.0454636294,10.0917293155
1776813641.1558518,0.021095238638529402,-0.22193331903500224,0.00220040124198722,0.9748311397587102,0.0178678082172919,-0.0432187156025095,-0.0001527163095495,-0.2009970984,-0.0418743954999999,10.0929257268
1776813641.256904,0.021876529143146497,-0.224060835490349,0.0023757627127292545,0.9743266984043641,0.0164933614313464,-0.0432187156025095,-0.001221730476396,-0.1878365741,-0.0299102825,10.0929257268
1776813641.3584545,0.022648466150792725,-0.22618153184386053,0.002595285091695467,0.9738183743024538,0.0160352125026979,-0.0429132829834105,-0.000305432619099,-0.179461695,-0.023928226,10.097711372
1776813641.459478,0.023363982239259378,-0.22826897223477544,0.0027476563505063646,0.9733138502216961,0.0152716309549503,-0.042455134054762,-0.001527163095495,-0.1746760498,-0.0191425808,10.097711372
1776813641.5612504,0.02407150575779064,-0.23043086952826664,0.002917600550917715,0.9727865462608047,0.0149661983358513,-0.0436768645311581,-0.001221730476396,-0.1830509289,-0.0167497582,10.1036934285
1776813641.663489,0.02470110563178629,-0.23257775223125787,0.003114827748753284,0.9722590922155053,0.0131336026212573,-0.0432187156025095,-0.000305432619099,-0.179461695,-0.0179461695,10.0893364929
1776813641.7645082,0.025302187277079103,-0.23466840743166859,0.003285602256865459,0.9717405737594215,0.0128281700021583,-0.0426078503643115,-0.0007635815477475,-0.1758724611,-0.0203389920999999,10.0941221381
1776813641.8658764,0.025832706528439088,-0.2368032928330615,0.0034292431741915156,0.9712080683705666,0.0114537232162127,-0.043371431912059,-0.0010690141668465,-0.1830509289,-0.0059820565,10.086943670299998
1776813641.9670298,0.02629211581385374,-0.23890288506323265,0.003550124317799287,0.970680963433312,0.0100792764302672,-0.042760566673861,-0.001221730476396,-0.1639083481,-0.0047856452,10.0941221381
1776813642.0683742,0.026777602206896723,-0.24101146185137493,0.0037224219962571714,0.9701456482666888,0.0103847090493662,-0.0429132829834105,-0.000305432619099,-0.1698904046,-0.0083748791,10.1060862511
1776813642.169532,0.02719433426211217,-0.24308603088374053,0.0038507445617192177,0.9696158113085563,0.0091629785729702,-0.0423024177452125,-0.000916297857297,-0.1842473402,-0.0143569356,10.109675485
1776813642.2707736,0.027545405738348096,-0.2451379003586797,0.003998959037148976,0.9690885763216215,0.0076358154774751,-0.041844268816564,-0.0001527163095495,-0.1890329854,-0.0263210486,10.0965149607
1776813642.3720205,0.027809015302212043,-0.24725686683706394,0.0041148088198157936,0.9685420841750844,0.0059559360724306,-0.0432187156025095,-0.0004581489286485,-0.2033899209999999,-0.0167497582,10.0965149607
1776813642.4735715,0.028054140347882315,-0.24936645156282222,0.004212955210765427,0.9679935893654978,0.0056505034533316,-0.0429132829834105,-0.0007635815477475,-0.2009970984,-0.0191425808,10.1024970172
1776813642.5746992,0.028228923424679895,-0.25145076349445805,0.004314448893190638,0.96744872057959,0.0041233403578366,-0.0426078503643115,-0.000305432619099,-0.2033899209999999,-0.0334995164,10.090532904199998
1776813642.676345,0.028272832472325454,-0.253530565702444,0.0043684065851517595,0.9669042435642204,0.001527163095495,-0.0423024177452125,-0.000610865238198,-0.2033899209999999,-0.035892339,10.090532904199998
1776813642.7775624,0.02821739959627596,-0.25557866997356704,0.004388626110249926,0.9663664221067654,-0.0004581489286485,-0.041844268816564,-0.0007635815477475,-0.2033899209999999,-0.0418743954999999,10.0941221381
1776813642.8791883,0.02806081002697003,-0.2576114573725664,0.004395159837600844,0.9658310465816548,-0.0025961772623415,-0.0413861198879155,-0.0004581489286485,-0.2117648001,-0.0442672181,10.0929257268
1776813642.9812632,0.027838869782060974,-0.25968287427954456,0.004370875087285616,0.9652827034533163,-0.0038179077387375,-0.0419969851261135,-0.0007635815477475,-0.2021935097,-0.0466600407,10.0929257268
1776813643.0823112,0.02755492009119782,-0.2617166655591255,0.004362633396893715,0.9647414579965065,-0.0053450708342326,-0.0416915525070145,0.0,-0.2021935097,-0.0442672181,10.0989077833
1776813643.1834996,0.027214096744718343,-0.2637900369286775,0.00432521816048281,0.9641864455816626,-0.0064140850010791,-0.042455134054762,-0.000305432619099,-0.1974078645,-0.0550349198,10.1120683076
1776813643.2846017,0.02679396028469254,-0.2658605827822285,0.004271351663949071,0.9636295915806649,-0.0080939644061237,-0.042455134054762,-0.0001527163095495,-0.2021935097,-0.071784678,10.097711372
1776813643.385796,0.026358694675536126,-0.2679467389314728,0.004212025441045219,0.9630638728312235,-0.0083993970252227,-0.042760566673861,-0.0001527163095495,-0.2009970984,-0.071784678,10.1072826624
1776813643.4869804,0.025859130554888914,-0.2700166474255669,0.004139153332247776,0.9624994456568245,-0.0097738438111682,-0.042455134054762,0.0,-0.2045863322999999,-0.0825523797,10.1001041946
1776813643.588158,0.02535769392927368,-0.27210765620945937,0.004057422171033151,0.9619240864621854,-0.0097738438111682,-0.0429132829834105,-0.0001527163095495,-0.1986042757999999,-0.0789631458,10.1084790737
1776813643.6892345,0.024833059595831708,-0.2741732955609575,0.003959311836463288,0.9613514690279177,-0.0102319927398167,-0.042455134054762,-0.000305432619099,-0.2057827435999999,-0.0765703232,10.0989077833
1776813643.7903612,0.024299639498684286,-0.2762765228601717,0.0038303546232094066,0.9607633105088826,-0.0102319927398167,-0.0432187156025095,-0.000916297857297,-0.2057827435999999,-0.071784678,10.0965149607
1776813643.8917394,0.023756162302630456,-0.2783528419881411,0.0037362661636552033,0.9601777858422524,-0.0106901416684652,-0.0426078503643115,0.0,-0.2033899209999999,-0.0849452023,10.1013006059
1776813643.9930751,0.023203016333147523,-0.2804192454367197,0.0036502681288834047,0.9595901950126062,-0.0109955742875642,-0.042455134054762,0.000305432619099,-0.2069791549,-0.0933200814,10.1060862511
1776813644.0942729,0.022669971390767943,-0.28248229543535575,0.003533734901510416,0.9589980906552212,-0.0103847090493662,-0.042455134054762,-0.0004581489286485,-0.1986042757999999,-0.0945164927,10.1013006059
1776813644.195235,0.022070325125625435,-0.284553242100302,0.0034358995548907827,0.9583999936108644,-0.0120645884544108,-0.042760566673861,0.0004581489286485,-0.2057827435999999,-0.1160518961,10.0965149607
1776813644.2961867,0.021511666521389992,-0.2865932794071856,0.003333274013533898,0.957805006087595,-0.0111482905971137,-0.042149701435663,0.0001527163095495,-0.2093719774999999,-0.1124626622,10.0965149607
1776813644.397306,0.02090526204155589,-0.2886500096746719,0.003227689269255647,0.9572009840967396,-0.0122173047639603,-0.042455134054762,0.0004581489286485,-0.2033899209999999,-0.1184447186999999,10.0953185494
1776813644.49864,0.020312098051061052,-0.2907462653010324,0.0031446086864361194,0.9565793952006677,-0.0120645884544108,-0.0432187156025095,0.000916297857297,-0.1998006870999999,-0.1244267751999999,10.0725867347
1776813644.5996182,0.019712623652373397,-0.29279709991643105,0.0030487322741921856,0.9559665140478445,-0.0122173047639603,-0.042455134054762,0.0007635815477475,-0.2033899209999999,-0.1459621786,10.0917293155
1776813644.700873,0.019322491996602797,-0.2949117560827787,0.0029628935365005596,0.9553245096244021,-0.0074830991679256,-0.0436768645311581,-0.0004581489286485,-0.1938186305999999,-0.1363908882,10.0833544364
1776813644.802363,0.018975450951823236,-0.2969993016544892,0.0029282097593145437,0.954684645663439,-0.0068722339297276,-0.04306599929296,0.0004581489286485,-0.2033899209999999,-0.1639083481,10.0893364929
1776813644.9042273,0.018656050602987417,-0.29907174743231746,0.0028534203999201176,0.9540439715525172,-0.0059559360724306,-0.0426078503643115,-0.000610865238198,-0.2093719774999999,-0.1663011706999999,10.0929257268
1776813645.0052383,0.018385741834525415,-0.30118438626162874,0.00278085941745674,0.9533846006676951,-0.0048869219055841,-0.0438295808407076,-0.000916297857297,-0.1974078645,-0.1663011706999999,10.0929257268
1776813645.106266,0.018139305502062383,-0.30328016921629697,0.0027607659930072143,0.9527247675625784,-0.0047342055960346,-0.0435241482216085,0.0001527163095495,-0.2057827435999999,-0.1686939932999999,10.0893364929
1776813645.2073543,0.01793757314713594,-0.3053539751957311,0.0027336223071791317,0.9520660274428647,-0.003665191429188,-0.04306599929296,-0.000305432619099,-0.2081755662,-0.1806581063,10.0749795573
1776813645.3086112,0.017791925777969137,-0.30744446928746755,0.002717639778193388,0.9513957957210526,-0.002443460952792,-0.043371431912059,-0.0004581489286485,-0.215354034,-0.1818545176,10.085747259
1776813645.409817,0.01767096446373987,-0.30949510655008317,0.002734571550406042,0.9507328952733831,-0.002138028333693,-0.0426078503643115,0.0001527163095495,-0.2189432679,-0.1734796385,10.0785687912
1776813645.510789,0.017569656596967527,-0.311568944054386,0.002751490154928963,0.9500571191090705,-0.0016798794050445,-0.0432187156025095,0.0,-0.2201396792,-0.1651047594,10.0893364929
1776813645.6118412,0.017527189880514958,-0.3136211986560504,0.00276740403451173,0.9493823691449849,-0.000305432619099,-0.042760566673861,-0.0004581489286485,-0.2165504453,-0.1674975819999999,10.0953185494
1776813645.7129092,0.017552593292569755,-0.3157012580066154,0.0028131341246138233,0.9486921041297556,0.0010690141668465,-0.043371431912059,-0.000305432619099,-0.1986042757999999,-0.1698904046,10.0893364929
1776813645.8138876,0.017601789313376713,-0.3178073729389329,0.002854851467300687,0.9479876056899273,0.0016798794050445,-0.0439822971502571,-0.000610865238198,-0.2009970984,-0.1710868159,10.090532904199998
1776813645.9153018,0.017719259310606212,-0.31992104331343085,0.0029072409887941353,0.947274037353797,0.0032070425005395,-0.0439822971502571,-0.000916297857297,-0.2213360905,-0.1830509289,10.0941221381
1776813646.0165975,0.01788264979969234,-0.32201572609719525,0.0029822598859175283,0.9465607160178423,0.0041233403578366,-0.0436768645311581,-0.0007635815477475,-0.2165504453,-0.1722832271999999,10.0989077833
1776813646.1177254,0.0180942077590223,-0.32409031829706214,0.003087374436880474,0.9458480498213067,0.0050396382151336,-0.043371431912059,-0.0004581489286485,-0.2201396792,-0.1651047594,10.1001041946
1776813646.2189326,0.018355916876956768,-0.32617287677825063,0.003172670613603131,0.9451265782586923,0.0064140850010791,-0.0435241482216085,-0.0013744467859455,-0.2009970984,-0.1651047594,10.1048898398
1776813646.3199434,0.01862837750084945,-0.3282713276722401,0.003276822880494003,0.9443940816268389,0.0065668013106286,-0.0439822971502571,-0.0010690141668465,-0.1962114532,-0.1567298802999999,10.1036934285
1776813646.4209554,0.018960813635672594,-0.33036779096729774,0.0034100944446573706,0.9436556477304313,0.0077885317870246,-0.0439822971502571,-0.000916297857297,-0.1950150419,-0.1579262916,10.0965149607
1776813646.5268316,0.019349484604568673,-0.3325326082167328,0.0035719640950356243,0.9428864740734264,0.0085521133347722,-0.043371431912059,-0.0007635815477475,-0.2021935097,-0.1627119367999999,10.0845508477
1776813646.628149,0.019812805652003926,-0.3346309942978215,0.0037750756299773855,0.9421333765404107,0.0103847090493662,-0.0439822971502571,-0.0004581489286485,-0.2033899209999999,-0.1519442351,10.0941221381
1776813646.7292137,0.020335886340986587,-0.33675174456527196,0.00397753359044987,0.9413654409874569,0.0119118721448612,-0.0445931623884551,-0.0010690141668465,-0.1866401628,-0.1459621786,10.1048898398
1776813646.8306458,0.0209459489676449,-0.3388480832633257,0.004245295230928575,0.9405983314672726,0.0134390352403563,-0.0439822971502571,-0.000305432619099,-0.1926222193,-0.1459621786,10.090532904199998
1776813646.9320407,0.02160444147292474,-0.34091891890762005,0.00456483304763372,0.9398333368947656,0.0142026167881038,-0.0435241482216085,0.0004581489286485,-0.1974078645,-0.1363908882,10.085747259
1776813647.033672,0.02234824734759265,-0.3429850635652804,0.0049125113265747235,0.9390621221431933,0.0160352125026979,-0.043371431912059,0.000305432619099,-0.1926222193,-0.143569356,10.1001041946
1776813647.1361306,0.023144226859645546,-0.34510308539728274,0.005259629082931529,0.9382646436449875,0.0172569429790939,-0.0441350134598066,-0.000305432619099,-0.1926222193,-0.1268195978,10.0953185494
1776813647.2371323,0.02399164580346951,-0.34716601421429544,0.005659752404641779,0.9374796673576014,0.0183259571459404,-0.0436768645311581,0.0004581489286485,-0.1962114532,-0.11964113,10.0893364929
1776813647.3392608,0.02493078049701969,-0.3492226718946436,0.006004025255941329,0.9366888134803903,0.020922134408282,-0.04306599929296,-0.001832595714594,-0.1902293967,-0.107677017,10.1013006059
1776813647.4411807,0.025850586472089335,-0.3512577262834775,0.006377130716539121,0.9359001491126256,0.020311269170084,-0.042760566673861,-0.0010690141668465,-0.2141576227,-0.0634097989,10.1060862511
1776813647.5430768,0.026726119494369305,-0.35330546096018645,0.006726584589811473,0.9351019831292409,0.0195476876223364,-0.04306599929296,-0.0013744467859455,-0.2093719774999999,-0.0634097989,10.1024970172
1776813647.6441166,0.027614629303580527,-0.3553548334920404,0.007105026502126546,0.9342964696287116,0.0198531202414355,-0.0435241482216085,-0.000916297857297,-0.2117648001,-0.0634097989,10.090532904199998
1776813647.745743,0.028458194951011977,-0.35736404384356435,0.0074570133116275104,0.9335017216161818,0.0189368223841384,-0.042455134054762,-0.001221730476396,-0.2069791549,-0.0562313311,10.1001041946
1776813647.8469932,0.029304106353993612,-0.3594208095960805,0.007835246566179035,0.9326824539420365,0.0189368223841384,-0.0436768645311581,-0.0007635815477475,-0.1998006870999999,-0.0466600407,10.1001041946
1776813647.9487576,0.03009621422523788,-0.3614567578449487,0.008214812106571859,0.9318668075211073,0.0175623755981929,-0.04306599929296,-0.000305432619099,-0.1986042757999999,-0.0394815729,10.1108718963
1776813648.0499902,0.030862491053504894,-0.363503209972663,0.008546405551688622,0.9310423631273114,0.0175623755981929,-0.0435241482216085,-0.0013744467859455,-0.2009970984,-0.0382851616,10.0989077833
1776813648.1513877,0.03160627136162021,-0.3655500358478466,0.008904121105259661,0.9302123045464386,0.0167987940504454,-0.0435241482216085,-0.000610865238198,-0.1950150419,-0.0323031051,10.1072826624
1776813648.254147,0.03238447697641424,-0.3676294335336316,0.009274735501139482,0.9293620524489307,0.0174096592886434,-0.0436768645311581,-0.0007635815477475,-0.1782652837,-0.0251246373,10.1024970172
1776813648.3559206,0.03312679768070918,-0.3696429999075443,0.009651066219645392,0.9285329960833899,0.0166460777408959,-0.042760566673861,-0.000305432619099,-0.1866401628,-0.0263210486,10.0929257268
1776813648.4584477,0.0339215217100775,-0.3717118933879574,0.010067351988092502,0.9276735671036231,0.0175623755981929,-0.0436768645311581,0.0,-0.1902293967,-0.0191425808,10.0965149607
1776813648.5594444,0.03466042162861624,-0.37371953945798814,0.010462555592236708,0.9268348806180715,0.0166460777408959,-0.04306599929296,0.0,-0.1758724611,-0.0299102825,10.1013006059
1776813648.661098,0.03535077504718579,-0.3757262104406028,0.010793924400998299,0.9259933200015714,0.0160352125026979,-0.042760566673861,-0.001221730476396,-0.1758724611,-0.023928226,10.1024970172
1776813648.762378,0.03600674822128879,-0.3777304698499304,0.011127392929977924,0.9251483056008163,0.0152716309549503,-0.0429132829834105,-0.000916297857297,-0.1842473402,-0.0179461695,10.1072826624
1776813648.863876,0.036662247796788054,-0.3797643604232787,0.011495894634072936,0.9242849963865839,0.0149661983358513,-0.0435241482216085,-0.0001527163095495,-0.1842473402,-0.0167497582,10.1132647189
1776813648.9650657,0.037223529597603666,-0.3817558962630324,0.011815070500971563,0.92343773402529,0.0131336026212573,-0.042760566673861,-0.0004581489286485,-0.1830509289,-0.0179461695,10.1036934285
1776813649.0664062,0.03779437322879753,-0.3837479602518065,0.012147469691380489,0.9225841573184081,0.0132863189308068,-0.042760566673861,-0.000305432619099,-0.1782652837,-0.0131605243,10.1013006059
1776813649.1675708,0.0382484375843009,-0.3857301987742373,0.012404299655790915,0.9217349966915636,0.0111482905971137,-0.0426078503643115,-0.0010690141668465,-0.1651047594,0.0,10.1013006059
1776813649.2690067,0.038665417879694325,-0.38772290023813305,0.012660673318538748,0.9208776495508187,0.0102319927398167,-0.042760566673861,-0.0007635815477475,-0.1686939932999999,-0.0095712904,10.1120683076
1776813649.3708382,0.038975325267288315,-0.3896955794307272,0.012843642109746114,0.9200289779402689,0.0082466807156732,-0.042149701435663,-0.001527163095495,-0.1770688724,-0.0179461695,10.1192467754
1776813649.472047,0.03927387766211328,-0.39165209896913467,0.013076003567178033,0.919181817725505,0.0074830991679256,-0.042149701435663,-0.0001527163095495,-0.1998006870999999,-0.0346959277,10.1048898398
1776813649.57301,0.03948201333848054,-0.39363889188660434,0.013267408064491348,0.9183210600330782,0.0056505034533316,-0.0429132829834105,-0.000305432619099,-0.2045863322999999,-0.0167497582,10.1048898398
1776813649.6739757,0.039600277396727925,-0.3955908118880897,0.013396395603112062,0.9174749392570182,0.0039706240482871,-0.042149701435663,-0.000916297857297,-0.1962114532,-0.0179461695,10.1084790737
1776813649.775226,0.039689907713868024,-0.39755207379322255,0.01355497966313407,0.9166205989255888,0.0029016098814405,-0.0423024177452125,0.0001527163095495,-0.2021935097,-0.0275174599,10.1036934285
1776813649.8763838,0.03967038921787279,-0.3994903524325142,0.013659546093129,0.9157767934017426,0.000610865238198,-0.041844268816564,0.0,-0.2117648001,-0.0394815729,10.1048898398
1776813649.9774334,0.03959676814594648,-0.4014106909003875,0.013756690116442791,0.9149384168676654,-0.0007635815477475,-0.041538836197465,0.0004581489286485,-0.2009970984,-0.0287138712,10.1048898398
1776813650.0785823,0.03942964162338804,-0.4033409153574509,0.013784449562392592,0.9140959458997324,-0.002443460952792,-0.0416915525070145,-0.000305432619099,-0.2081755662,-0.0323031051,10.109675485
1776813650.1797256,0.03918804493179267,-0.40527011365113597,0.013784319546987556,0.9132526620000874,-0.0041233403578366,-0.0416915525070145,-0.0001527163095495,-0.2177468566,-0.0490528633,10.1001041946
1776813650.2808435,0.038869395655159476,-0.40721983925021527,0.013738801354831694,0.9123992645436337,-0.0056505034533316,-0.042149701435663,-0.0004581489286485,-0.2117648001,-0.0466600407,10.0941221381
1776813650.3818235,0.038523308989587876,-0.40919408597126367,0.013670004452078577,0.9115312861602255,-0.0061086523819801,-0.042760566673861,-0.0007635815477475,-0.2069791549,-0.0514456858999999,10.0965149607
1776813650.4827986,0.038164200804202755,-0.41115026061275,0.013643520025475898,0.9106661360434781,-0.0070249502392771,-0.042455134054762,0.000610865238198,-0.2033899209999999,-0.0550349198,10.118050364099998
1776813650.5838273,0.037698118470310044,-0.41311545395147625,0.013539318694791594,0.9097973183185062,-0.0090102622634207,-0.0426078503643115,-0.0001527163095495,-0.2069791549,-0.0705882667,10.1132647189
1776813650.684891,0.037288064139180864,-0.41509961162689446,0.013459829888035056,0.9089118470343198,-0.0077885317870246,-0.04306599929296,-0.0001527163095495,-0.2141576227,-0.0849452023,10.118050364099998
1776813650.785884,0.03682685244085721,-0.41704595557615354,0.013358481631134844,0.9080407506524049,-0.0090102622634207,-0.0423024177452125,0.0,-0.1998006870999999,-0.0705882667,10.121639598
